word,triggerWord,matchMis,trialNum,triggerAudio,corrAns,audio,condition,blockSort,trials_3.thisRepN,trials_3.thisTrialN,trials_3.thisN,trials_3.thisIndex,trials.thisRepN,trials.thisTrialN,trials.thisN,trials.thisIndex,trials_2.thisRepN,trials_2.thisTrialN,trials_2.thisN,trials_2.thisIndex,key_resp_9.keys,key_resp_9.rt,pauseKey1.keys,pauseKey2.keys,key_resp_2.keys,key_resp_2.corr,key_resp_2.rt,pauseKey.keys,key_resp_4.keys,key_resp_4.rt,date,frameRate,expName,session,participant,
,,,,,,,,,,,,,,,,,,,,,space,3.55214587343,,,,,,,,,2016_Mar_07_1500,60.048976318,mismatchTask,001,ROT4pre,
ЛОЩ,111,mis,480,22,right,mismatchStimuli/RusMislach.wav,russian,,0,0,0,5,,,,,,,,,,,None,None,right,1,2.05160097172,None,,,2016_Mar_07_1500,60.048976318,mismatchTask,001,ROT4pre,
ЦОГ,111,match,393,21,left,mismatchStimuli/RusMatchtsog.wav,russian,,0,1,1,6,,,,,,,,,,,None,None,right,0,2.93522521737,None,,,2016_Mar_07_1500,60.048976318,mismatchTask,001,ROT4pre,
LAJ,122,mis,299,12,right,mismatchStimuli/EngMisraj.wav,english,,0,2,2,3,,,,,,,,,,,None,None,right,1,2.05165572721,None,,,2016_Mar_07_1500,60.048976318,mismatchTask,001,ROT4pre,
ДАГ,111,match,417,21,left,mismatchStimuli/RusMatchdag.wav,russian,,0,3,3,4,,,,,,,,,,,None,None,None,0,,None,,,2016_Mar_07_1500,60.048976318,mismatchTask,001,ROT4pre,
KAR,142,match,313,11,left,mismatchStimuli/EngMatchkar.wav,english,,0,4,4,2,,,,,,,,,,,None,None,left,1,1.10112311761,None,,,2016_Mar_07_1500,60.048976318,mismatchTask,001,ROT4pre,
ЦАЧ,111,mis,392,22,right,mismatchStimuli/RusMistsezh.wav,russian,,0,5,5,7,,,,,,,,,,,None,None,right,1,2.16815160867,None,,,2016_Mar_07_1500,60.048976318,mismatchTask,001,ROT4pre,
WOG,122,match,222,11,left,mismatchStimuli/EngMatchwag.wav,english,,0,6,6,0,,,,,,,,,,,None,None,left,1,0.917665583082,None,,,2016_Mar_07_1500,60.048976318,mismatchTask,001,ROT4pre,
TOD,142,mis,344,12,right,mismatchStimuli/EngMiscode.wav,english,,0,7,7,1,,,,,,,,,,,None,None,right,1,1.20142113022,None,,,2016_Mar_07_1500,60.048976318,mismatchTask,001,ROT4pre,
TAW,142,match,350,11,left,mismatchStimuli/EngMatchtaw.wav,english,1,,,,,0,0,0,174,,,,,,,None,None,left,1,0.967922389507,None,,,2016_Mar_07_1500,60.048976318,mismatchTask,001,ROT4pre,
ВАМ,234,match,59,21,left,mismatchStimuli/AmbRusMatchvam.wav,ambiguous,1,,,,,0,1,1,29,,,,,,,None,None,right,0,1.48460809956,None,,,2016_Mar_07_1500,60.048976318,mismatchTask,001,ROT4pre,
ГОФ,111,mis,459,22,right,mismatchStimuli/RusMistaf.wav,russian,1,,,,,0,2,2,229,,,,,,,None,None,right,1,1.13394761062,None,,,2016_Mar_07_1500,60.048976318,mismatchTask,001,ROT4pre,
ЖОТ,114,mis,384,22,right,mismatchStimuli/RusMiszham.wav,russian,1,,,,,0,3,3,191,,,,,,,None,None,right,1,1.13459978858,None,,,2016_Mar_07_1500,60.048976318,mismatchTask,001,ROT4pre,
WAJ,122,match,230,11,left,mismatchStimuli/EngMatchwaaj.wav,english,1,,,,,0,4,4,114,,,,,,,None,None,left,1,0.917448516469,None,,,2016_Mar_07_1500,60.048976318,mismatchTask,001,ROT4pre,
TOG,142,match,337,11,left,mismatchStimuli/EngMatchtag.wav,english,1,,,,,0,5,5,168,,,,,,,None,None,left,1,1.35945546138,None,,,2016_Mar_07_1500,60.048976318,mismatchTask,001,ROT4pre,
KAD,142,mis,320,12,right,mismatchStimuli/EngMiskar.wav,english,1,,,,,0,6,6,159,,,,,,,None,None,right,1,1.16732454812,None,,,2016_Mar_07_1500,60.048976318,mismatchTask,001,ROT4pre,
РОТ,234,match,105,11,left,mismatchStimuli/AmbEngMatchpat.wav,ambiguous,1,,,,,0,7,7,52,,,,,,,None,None,left,1,1.00105243828,None,,,2016_Mar_07_1500,60.048976318,mismatchTask,001,ROT4pre,
FOL,122,match,262,11,left,mismatchStimuli/EngMatchfall.wav,english,1,,,,,0,8,8,130,,,,,,,None,None,left,1,0.951465898659,None,,,2016_Mar_07_1500,60.048976318,mismatchTask,001,ROT4pre,
ЖАЩ,111,mis,371,22,right,mismatchStimuli/RusMisfesh.wav,russian,1,,,,,0,9,9,185,,,,,,,None,None,right,1,1.51789654838,None,,,2016_Mar_07_1500,60.048976318,mismatchTask,001,ROT4pre,
WAD,122,mis,240,12,right,mismatchStimuli/EngMiskad.wav,english,1,,,,,0,10,10,119,,,,,,,None,None,right,1,0.950889987405,None,,,2016_Mar_07_1500,60.048976318,mismatchTask,001,ROT4pre,
BOH,233,mis,134,12,right,mismatchStimuli/AmbEngMisbobe.wav,ambiguous,1,,,,,0,11,11,66,,,,,,,None,None,left,0,1.71815572912,None,,,2016_Mar_07_1500,60.048976318,mismatchTask,001,ROT4pre,
НАТ,234,mis,38,12,right,mismatchStimuli/AmbEngMisbat.wav,ambiguous,1,,,,,0,12,12,18,,,,,,,None,None,right,1,0.934508296428,None,,,2016_Mar_07_1500,60.048976318,mismatchTask,001,ROT4pre,
ЦАЧ,111,match,390,21,left,mismatchStimuli/RusMatchtsach.wav,russian,1,,,,,0,13,13,194,,,,,,,None,None,right,0,0.900981758954,None,,,2016_Mar_07_1500,60.048976318,mismatchTask,001,ROT4pre,
ВАK,234,mis,54,12,right,mismatchStimuli/AmbEngMishak.wav,ambiguous,1,,,,,0,14,14,26,,,,,,,None,None,right,1,0.95172256534,None,,,2016_Mar_07_1500,60.048976318,mismatchTask,001,ROT4pre,
ЧОД,111,mis,411,22,right,mismatchStimuli/RusMischak.wav,russian,1,,,,,0,15,15,205,,,,,,,None,None,right,1,1.26695962739,None,,,2016_Mar_07_1500,60.048976318,mismatchTask,001,ROT4pre,
KАФ,141,match,481,21,left,mismatchStimuli/RusMatchkaf.wav,russian,1,,,,,0,16,16,240,,,,,,,None,None,left,1,1.08497609315,None,,,2016_Mar_07_1500,60.048976318,mismatchTask,001,ROT4pre,
ВАН,233,mis,46,12,right,mismatchStimuli/AmbEngMisbab.wav,ambiguous,1,,,,,0,17,17,22,,,,,,,None,None,right,1,1.11715085292,None,,,2016_Mar_07_1500,60.048976318,mismatchTask,001,ROT4pre,
ДАГ,111,match,417,21,left,mismatchStimuli/RusMatchdag.wav,russian,1,,,,,0,18,18,208,,,,,,,None,None,right,0,1.33442043629,None,,,2016_Mar_07_1500,60.048976318,mismatchTask,001,ROT4pre,
FOJ,122,mis,259,12,right,mismatchStimuli/EngMisfoal.wav,english,1,,,,,0,19,19,129,,,,,,,None,None,right,1,1.51809161506,None,,,2016_Mar_07_1500,60.048976318,mismatchTask,001,ROT4pre,
ЖАK,114,match,374,21,left,mismatchStimuli/RusMatchzhak.wav,russian,1,,,,,0,20,20,186,,,,,,,None,None,left,1,1.13482809975,None,,,2016_Mar_07_1500,60.048976318,mismatchTask,001,ROT4pre,
ЦАЖ,111,match,385,21,left,mismatchStimuli/RusMatchtsazh.wav,russian,1,,,,,0,21,21,192,,,,,,,None,None,right,0,1.53455055039,None,,,2016_Mar_07_1500,60.048976318,mismatchTask,001,ROT4pre,
HAP,233,match,25,11,left,mismatchStimuli/AmbEngMatchhaap.wav,ambiguous,1,,,,,0,22,22,12,,,,,,,None,None,left,1,2.86897049774,None,,,2016_Mar_07_1500,60.048976318,mismatchTask,001,ROT4pre,
ЖАЩ,111,match,369,21,left,mismatchStimuli/RusMatchzhash.wav,russian,1,,,,,0,23,23,184,,,,,,,None,None,right,0,1.41803218005,None,,,2016_Mar_07_1500,60.048976318,mismatchTask,001,ROT4pre,
PAT,234,mis,24,22,right,mismatchStimuli/AmbRusMisrem.wav,ambiguous,1,,,,,0,24,24,11,,,,,,,None,None,right,1,1.03427586472,None,,,2016_Mar_07_1500,60.048976318,mismatchTask,001,ROT4pre,
ЛОЧ,111,match,473,21,left,mismatchStimuli/RusMatchloch.wav,russian,1,,,,,0,25,25,236,,,,,,,None,None,right,0,1.66885812301,None,,,2016_Mar_07_1500,60.048976318,mismatchTask,001,ROT4pre,
НОВ,233,match,113,11,left,mismatchStimuli/AmbEngMatchhab.wav,ambiguous,1,,,,,0,26,26,56,,,,,,,None,None,left,1,1.26785087213,None,,,2016_Mar_07_1500,60.048976318,mismatchTask,001,ROT4pre,
KАВ,243,match,83,21,left,mismatchStimuli/AmbRusMatchkav.wav,ambiguous,1,,,,,0,27,27,41,,,,,,,None,None,left,1,1.45161885093,None,,,2016_Mar_07_1500,60.048976318,mismatchTask,001,ROT4pre,
KAM,244,match,486,21,left,mismatchStimuli/RusMatchkam.wav,russian,1,,,,,0,28,28,242,,,,,,,None,None,left,1,0.983936924953,None,,,2016_Mar_07_1500,60.048976318,mismatchTask,001,ROT4pre,
ГАД,111,mis,456,22,right,mismatchStimuli/RusMisgesh.wav,russian,1,,,,,0,29,29,227,,,,,,,None,None,right,1,0.901047269814,None,,,2016_Mar_07_1500,60.048976318,mismatchTask,001,ROT4pre,
KOH,243,mis,158,12,right,mismatchStimuli/AmbEngMiskobe.wav,ambiguous,1,,,,,0,30,30,78,,,,,,,None,None,left,0,0.884595178999,None,,,2016_Mar_07_1500,60.048976318,mismatchTask,001,ROT4pre,
PAH,233,mis,8,22,right,mismatchStimuli/AmbRusMisven.wav,ambiguous,1,,,,,0,31,31,3,,,,,,,None,None,right,1,0.784616410732,None,,,2016_Mar_07_1500,60.048976318,mismatchTask,001,ROT4pre,
MAG,142,match,334,11,left,mismatchStimuli/EngMatchmaag.wav,english,1,,,,,0,32,32,166,,,,,,,None,None,left,1,0.833702816861,None,,,2016_Mar_07_1500,60.048976318,mismatchTask,001,ROT4pre,
ТОФ,141,match,521,21,left,mismatchStimuli/RusMatchtof.wav,russian,1,,,,,0,33,33,260,,,,,,,None,None,left,1,1.90128668607,None,,,2016_Mar_07_1500,60.048976318,mismatchTask,001,ROT4pre,
BOK,234,mis,142,12,right,mismatchStimuli/AmbEngMisbome.wav,ambiguous,1,,,,,0,34,34,70,,,,,,,None,None,right,1,0.90062780329,None,,,2016_Mar_07_1500,60.048976318,mismatchTask,001,ROT4pre,
МАЛ,141,match,497,21,left,mismatchStimuli/RusMatchmal.wav,russian,1,,,,,0,35,35,248,,,,,,,None,None,left,1,1.18449726142,None,,,2016_Mar_07_1500,60.048976318,mismatchTask,001,ROT4pre,
ВАР,233,match,43,21,left,mismatchStimuli/AmbRusMatchvar.wav,ambiguous,1,,,,,0,36,36,21,,,,,,,None,None,right,0,0.934462340781,None,,,2016_Mar_07_1500,60.048976318,mismatchTask,001,ROT4pre,
НАТ,234,mis,40,22,right,mismatchStimuli/AmbRusMisnek.wav,ambiguous,1,,,,,0,37,37,19,,,,,,,None,None,right,1,1.18458819506,None,,,2016_Mar_07_1500,60.048976318,mismatchTask,001,ROT4pre,
РОВ,233,mis,94,12,right,mismatchStimuli/AmbEngMispope.wav,ambiguous,1,,,,,0,38,38,46,,,,,,,None,None,left,0,0.884451445658,None,,,2016_Mar_07_1500,60.048976318,mismatchTask,001,ROT4pre,
ЖОТ,114,match,382,21,left,mismatchStimuli/RusMatchzhot.wav,russian,1,,,,,0,39,39,190,,,,,,,None,None,left,1,1.10036582849,None,,,2016_Mar_07_1500,60.048976318,mismatchTask,001,ROT4pre,
МОЦ,141,mis,507,22,right,mismatchStimuli/RusMismazh.wav,russian,1,,,,,0,40,40,253,,,,,,,None,None,left,0,1.11749111954,None,,,2016_Mar_07_1500,60.048976318,mismatchTask,001,ROT4pre,
FAT,124,mis,272,12,right,mismatchStimuli/EngMisgat.wav,english,1,,,,,0,41,41,135,,,,,,,None,None,right,1,0.917331183096,None,,,2016_Mar_07_1500,60.048976318,mismatchTask,001,ROT4pre,
ГОK,114,mis,464,22,right,mismatchStimuli/RusMismak.wav,russian,1,,,,,0,42,42,231,,,,,,,None,None,right,1,0.983871902805,None,,,2016_Mar_07_1500,60.048976318,mismatchTask,001,ROT4pre,
ДАГ,111,mis,419,22,right,mismatchStimuli/RusMisdef.wav,russian,1,,,,,0,43,43,209,,,,,,,None,None,right,1,0.967257500626,None,,,2016_Mar_07_1500,60.048976318,mismatchTask,001,ROT4pre,
RAL,122,mis,192,12,right,mismatchStimuli/EngMisdal.wav,english,1,,,,,0,44,44,95,,,,,,,None,None,right,1,0.918242472224,None,,,2016_Mar_07_1500,60.048976318,mismatchTask,001,ROT4pre,
MOP,243,match,155,21,left,mismatchStimuli/AmbRusMatchmor.wav,ambiguous,1,,,,,0,45,45,77,,,,,,,None,None,right,0,0.9505942096,None,,,2016_Mar_07_1500,60.048976318,mismatchTask,001,ROT4pre,
LAJ,122,mis,299,12,right,mismatchStimuli/EngMisraj.wav,english,1,,,,,0,46,46,149,,,,,,,None,None,right,1,1.11762751988,None,,,2016_Mar_07_1500,60.048976318,mismatchTask,001,ROT4pre,
TOB,243,mis,176,22,right,mismatchStimuli/AmbRusMismav.wav,ambiguous,1,,,,,0,47,47,87,,,,,,,None,None,right,1,0.901037003379,None,,,2016_Mar_07_1500,60.048976318,mismatchTask,001,ROT4pre,
ЛОЩ,111,match,478,21,left,mismatchStimuli/RusMatchlosh.wav,russian,1,,,,,0,48,48,238,,,,,,,None,None,right,0,1.16699405946,None,,,2016_Mar_07_1500,60.048976318,mismatchTask,001,ROT4pre,
РОМ,234,mis,102,12,right,mismatchStimuli/AmbEngMishome.wav,ambiguous,1,,,,,0,49,49,50,,,,,,,None,None,left,0,0.917227538535,None,,,2016_Mar_07_1500,60.048976318,mismatchTask,001,ROT4pre,
JAL,122,mis,216,12,right,mismatchStimuli/EngMisjar.wav,english,1,,,,,0,50,50,107,,,,,,,None,None,right,1,1.3009999874,None,,,2016_Mar_07_1500,60.048976318,mismatchTask,001,ROT4pre,
TAW,142,mis,352,12,right,mismatchStimuli/EngMatchtaak.wav,english,1,,,,,0,51,51,175,,,,,,,None,None,right,1,0.950758476276,None,,,2016_Mar_07_1500,60.048976318,mismatchTask,001,ROT4pre,
BOB,233,match,139,21,left,mismatchStimuli/AmbRusMatchvov.wav,ambiguous,1,,,,,0,52,52,69,,,,,,,None,None,right,0,1.40136008919,None,,,2016_Mar_07_1500,60.048976318,mismatchTask,001,ROT4pre,
ЛАТ,114,match,470,21,left,mismatchStimuli/RusMatchlat.wav,russian,1,,,,,0,53,53,234,,,,,,,None,None,right,0,1.51779339276,None,,,2016_Mar_07_1500,60.048976318,mismatchTask,001,ROT4pre,
PAT,234,mis,22,12,right,mismatchStimuli/AmbEngMismat.wav,ambiguous,1,,,,,0,54,54,10,,,,,,,None,None,right,1,0.967825100524,None,,,2016_Mar_07_1500,60.048976318,mismatchTask,001,ROT4pre,
MOB,243,match,171,21,left,mismatchStimuli/AmbRusMatchmov.wav,ambiguous,1,,,,,0,55,55,85,,,,,,,None,None,right,0,1.60082042567,None,,,2016_Mar_07_1500,60.048976318,mismatchTask,001,ROT4pre,
MAT,244,match,502,21,left,mismatchStimuli/RusMatchmat.wav,russian,1,,,,,0,56,56,250,,,,,,,None,None,left,1,0.88370491215,None,,,2016_Mar_07_1500,60.048976318,mismatchTask,001,ROT4pre,
FAM,124,match,265,11,left,mismatchStimuli/EngMatchfaam.wav,english,1,,,,,0,57,57,132,,,,,,,None,None,left,1,1.10143405106,None,,,2016_Mar_07_1500,60.048976318,mismatchTask,001,ROT4pre,
JOF,122,mis,208,12,right,mismatchStimuli/EngMiswofe.wav,english,1,,,,,0,58,58,103,,,,,,,None,None,right,1,1.05040186667,None,,,2016_Mar_07_1500,60.048976318,mismatchTask,001,ROT4pre,
JAR,122,mis,211,12,right,mismatchStimuli/EngMisjol.wav,english,1,,,,,0,59,59,105,,,,,,,None,None,right,1,1.28439829662,None,,,2016_Mar_07_1500,60.048976318,mismatchTask,001,ROT4pre,
ЧАГ,111,mis,408,22,right,mismatchStimuli/RusMiskeg.wav,russian,1,,,,,0,60,60,203,,,,,,,None,None,right,1,1.30112269847,None,,,2016_Mar_07_1500,60.048976318,mismatchTask,001,ROT4pre,
GAT,124,match,286,11,left,mismatchStimuli/EngMatchgaat.wav,english,1,,,,,0,61,61,142,,,,,,,None,None,left,1,0.750900672982,None,,,2016_Mar_07_1500,60.048976318,mismatchTask,001,ROT4pre,
FAT,124,match,270,11,left,mismatchStimuli/EngMatchfaat.wav,english,1,,,,,0,62,62,134,,,,,,,None,None,left,1,0.867358421208,None,,,2016_Mar_07_1500,60.048976318,mismatchTask,001,ROT4pre,
TOB,243,mis,174,12,right,mismatchStimuli/AmbEngMistoe.wav,ambiguous,1,,,,,0,63,63,86,,,,,,,None,None,left,0,0.851721308194,None,,,2016_Mar_07_1500,60.048976318,mismatchTask,001,ROT4pre,
RAF,122,mis,187,12,right,mismatchStimuli/EngMisjaf.wav,english,1,,,,,0,64,64,93,,,,,,,None,None,right,1,1.23394984542,None,,,2016_Mar_07_1500,60.048976318,mismatchTask,001,ROT4pre,
BOM,234,match,147,21,left,mismatchStimuli/AmbRusMatchvom.wav,ambiguous,1,,,,,0,65,65,73,,,,,,,None,None,right,0,1.11786120874,None,,,2016_Mar_07_1500,60.048976318,mismatchTask,001,ROT4pre,
ФОМ,114,match,446,21,left,mismatchStimuli/RusMatchfom.wav,russian,1,,,,,0,66,66,222,,,,,,,None,None,right,0,1.26737322751,None,,,2016_Mar_07_1500,60.048976318,mismatchTask,001,ROT4pre,
DAG,122,match,254,11,left,mismatchStimuli/EngMatchdaag.wav,english,1,,,,,0,67,67,126,,,,,,,None,None,left,1,0.884659223491,None,,,2016_Mar_07_1500,60.048976318,mismatchTask,001,ROT4pre,
KAR,142,match,313,11,left,mismatchStimuli/EngMatchkar.wav,english,1,,,,,0,68,68,156,,,,,,,None,None,left,1,0.983483235817,None,,,2016_Mar_07_1500,60.048976318,mismatchTask,001,ROT4pre,
DAF,122,mis,251,12,right,mismatchStimuli/EngMisdag.wav,english,1,,,,,0,69,69,125,,,,,,,None,None,right,1,0.951236120891,None,,,2016_Mar_07_1500,60.048976318,mismatchTask,001,ROT4pre,
ТАР,243,mis,70,12,right,mismatchStimuli/AmbEngMistab.wav,ambiguous,1,,,,,0,70,70,34,,,,,,,None,None,left,0,0.900747091975,None,,,2016_Mar_07_1500,60.048976318,mismatchTask,001,ROT4pre,
DOR,122,match,241,11,left,mismatchStimuli/EngMatchdor.wav,english,1,,,,,0,71,71,120,,,,,,,None,None,left,1,0.767625564011,None,,,2016_Mar_07_1500,60.048976318,mismatchTask,001,ROT4pre,
RAL,122,match,190,11,left,mismatchStimuli/EngMatchraal.wav,english,1,,,,,0,72,72,94,,,,,,,None,None,left,1,0.800968768308,None,,,2016_Mar_07_1500,60.048976318,mismatchTask,001,ROT4pre,
JOT,124,mis,200,12,right,mismatchStimuli/EngMiscoat.wav,english,1,,,,,0,73,73,99,,,,,,,None,None,right,1,0.683593375608,None,,,2016_Mar_07_1500,60.048976318,mismatchTask,001,ROT4pre,
LAJ,122,match,297,11,left,mismatchStimuli/EngMatchlaaj.wav,english,1,,,,,0,74,74,148,,,,,,,None,None,left,1,1.35105243814,None,,,2016_Mar_07_1500,60.048976318,mismatchTask,001,ROT4pre,
GOW,122,mis,280,12,right,mismatchStimuli/EngMisjow.wav,english,1,,,,,0,75,75,139,,,,,,,None,None,left,0,1.08432244882,None,,,2016_Mar_07_1500,60.048976318,mismatchTask,001,ROT4pre,
TOD,142,mis,344,12,right,mismatchStimuli/EngMiscode.wav,english,1,,,,,0,76,76,171,,,,,,,None,None,right,1,1.23477997887,None,,,2016_Mar_07_1500,60.048976318,mismatchTask,001,ROT4pre,
МОЖ,141,match,510,21,left,mismatchStimuli/RusMatchmozh.wav,russian,1,,,,,0,77,77,254,,,,,,,None,None,left,1,1.68453385844,None,,,2016_Mar_07_1500,60.048976318,mismatchTask,001,ROT4pre,
BOT,234,mis,152,22,right,mismatchStimuli/AmbRusMisvar.wav,ambiguous,1,,,,,0,78,78,75,,,,,,,None,None,right,1,1.26722704968,None,,,2016_Mar_07_1500,60.048976318,mismatchTask,001,ROT4pre,
МАЛ,141,mis,499,22,right,mismatchStimuli/RusMistel.wav,russian,1,,,,,0,79,79,249,,,,,,,None,None,right,1,1.05090395571,None,,,2016_Mar_07_1500,60.048976318,mismatchTask,001,ROT4pre,
ДОЩ,111,mis,427,22,right,mismatchStimuli/RusMislash.wav,russian,1,,,,,0,80,80,213,,,,,,,None,None,right,1,0.951191143133,None,,,2016_Mar_07_1500,60.048976318,mismatchTask,001,ROT4pre,
TAM,244,mis,520,22,right,mismatchStimuli/RusMistek.wav,russian,1,,,,,0,81,81,259,,,,,,,None,None,left,0,0.951013187412,None,,,2016_Mar_07_1500,60.048976318,mismatchTask,001,ROT4pre,
LOK,124,match,289,11,left,mismatchStimuli/EngMatchlak.wav,english,1,,,,,0,82,82,144,,,,,,,None,None,left,1,0.93468380766,None,,,2016_Mar_07_1500,60.048976318,mismatchTask,001,ROT4pre,
GAK,124,match,281,11,left,mismatchStimuli/EngMatchgaak.wav,english,1,,,,,0,83,83,140,,,,,,,None,None,left,1,0.833947750274,None,,,2016_Mar_07_1500,60.048976318,mismatchTask,001,ROT4pre,
PAM,234,match,19,21,left,mismatchStimuli/AmbRusMatchram.wav,ambiguous,1,,,,,0,84,84,9,,,,,,,None,None,right,0,0.70071328897,None,,,2016_Mar_07_1500,60.048976318,mismatchTask,001,ROT4pre,
ЧОД,111,match,409,21,left,mismatchStimuli/RusMatchchod.wav,russian,1,,,,,0,85,85,204,,,,,,,None,None,right,0,1.20129939704,None,,,2016_Mar_07_1500,60.048976318,mismatchTask,001,ROT4pre,
WAJ,122,mis,232,12,right,mismatchStimuli/EngMislaj.wav,english,1,,,,,0,86,86,115,,,,,,,None,None,right,1,1.01715741795,None,,,2016_Mar_07_1500,60.048976318,mismatchTask,001,ROT4pre,
BOP,233,match,131,21,left,mismatchStimuli/AmbRusMatchvor.wav,ambiguous,1,,,,,0,87,87,65,,,,,,,None,None,right,0,0.65009959368,None,,,2016_Mar_07_1500,60.048976318,mismatchTask,001,ROT4pre,
LAM,124,match,302,11,left,mismatchStimuli/EngMatchlaam.wav,english,1,,,,,0,88,88,150,,,,,,,None,None,left,1,0.784589032875,None,,,2016_Mar_07_1500,60.048976318,mismatchTask,001,ROT4pre,
ЧАГ,111,match,406,21,left,mismatchStimuli/RusMatchchag.wav,russian,1,,,,,0,89,89,202,,,,,,,None,None,right,0,0.750286628725,None,,,2016_Mar_07_1500,60.048976318,mismatchTask,001,ROT4pre,
ЛАФ,111,mis,467,22,right,mismatchStimuli/RusMiskef.wav,russian,1,,,,,0,90,90,233,,,,,,,None,None,right,1,0.751533295261,None,,,2016_Mar_07_1500,60.048976318,mismatchTask,001,ROT4pre,
ЦАЧ,111,mis,392,22,right,mismatchStimuli/RusMistsezh.wav,russian,1,,,,,0,91,91,195,,,,,,,None,None,right,1,0.917709094472,None,,,2016_Mar_07_1500,60.048976318,mismatchTask,001,ROT4pre,
ЧОK,114,mis,416,22,right,mismatchStimuli/RusMischaf.wav,russian,1,,,,,0,92,92,207,,,,,,,None,None,right,1,0.926093050977,None,,,2016_Mar_07_1500,60.048976318,mismatchTask,001,ROT4pre,
GOW,122,match,278,11,left,mismatchStimuli/EngMatchgow.wav,english,1,,,,,0,93,93,138,,,,,,,None,None,left,1,0.701004666742,None,,,2016_Mar_07_1500,60.048976318,mismatchTask,001,ROT4pre,
JOW,122,match,201,11,left,mismatchStimuli/EngMatchjow.wav,english,1,,,,,0,94,94,100,,,,,,,None,None,left,1,0.801487479359,None,,,2016_Mar_07_1500,60.048976318,mismatchTask,001,ROT4pre,
РОР,233,match,89,11,left,mismatchStimuli/AmbEngMatchpap.wav,ambiguous,1,,,,,0,95,95,44,,,,,,,None,None,left,1,0.717827335466,None,,,2016_Mar_07_1500,60.048976318,mismatchTask,001,ROT4pre,
ГАЦ,111,match,449,21,left,mismatchStimuli/RusMatchgats.wav,russian,1,,,,,0,96,96,224,,,,,,,None,None,right,0,0.901316647651,None,,,2016_Mar_07_1500,60.048976318,mismatchTask,001,ROT4pre,
MOP,243,match,153,11,left,mismatchStimuli/AmbEngMatchmap.wav,ambiguous,1,,,,,0,97,97,76,,,,,,,None,None,left,1,0.7508400511,None,,,2016_Mar_07_1500,60.048976318,mismatchTask,001,ROT4pre,
MOK,244,match,321,11,left,mismatchStimuli/EngMatchmak.wav,english,1,,,,,0,98,98,160,,,,,,,None,None,left,1,0.784605655121,None,,,2016_Mar_07_1500,60.048976318,mismatchTask,001,ROT4pre,
GAT,124,mis,288,12,right,mismatchStimuli/EngMisgak.wav,english,1,,,,,0,99,99,143,,,,,,,None,None,right,1,1.00051074917,None,,,2016_Mar_07_1500,60.048976318,mismatchTask,001,ROT4pre,
KОЦ,141,match,489,21,left,mismatchStimuli/RusMatchkots.wav,russian,1,,,,,0,100,100,244,,,,,,,None,None,right,0,0.950660698581,None,,,2016_Mar_07_1500,60.048976318,mismatchTask,001,ROT4pre,
KOM,244,match,305,11,left,mismatchStimuli/EngMatchkam.wav,english,1,,,,,0,101,101,152,,,,,,,None,None,left,1,0.634459058288,None,,,2016_Mar_07_1500,60.048976318,mismatchTask,001,ROT4pre,
KАН,243,match,75,21,left,mismatchStimuli/AmbRusMatchkan.wav,ambiguous,1,,,,,0,102,102,37,,,,,,,None,None,right,0,0.850276641315,None,,,2016_Mar_07_1500,60.048976318,mismatchTask,001,ROT4pre,
WOF,122,match,225,11,left,mismatchStimuli/EngMatchwaf.wav,english,1,,,,,0,103,103,112,,,,,,,None,None,left,1,0.917471983004,None,,,2016_Mar_07_1500,60.048976318,mismatchTask,001,ROT4pre,
TOH,243,match,163,21,left,mismatchStimuli/AmbRusMatchton.wav,ambiguous,1,,,,,0,104,104,81,,,,,,,None,None,right,0,1.01720532915,None,,,2016_Mar_07_1500,60.048976318,mismatchTask,001,ROT4pre,
JOW,122,mis,203,12,right,mismatchStimuli/EngMisroje.wav,english,1,,,,,0,105,105,101,,,,,,,None,None,right,1,0.750762317562,None,,,2016_Mar_07_1500,60.048976318,mismatchTask,001,ROT4pre,
ЩАЧ,111,mis,360,22,right,mismatchStimuli/RusMisshezh.wav,russian,1,,,,,0,106,106,179,,,,,,,None,None,right,1,0.784421344055,None,,,2016_Mar_07_1500,60.048976318,mismatchTask,001,ROT4pre,
WOG,122,mis,224,12,right,mismatchStimuli/EngMiswor.wav,english,1,,,,,0,107,107,111,,,,,,,None,None,right,1,1.13485938846,None,,,2016_Mar_07_1500,60.048976318,mismatchTask,001,ROT4pre,
РОВ,233,mis,96,22,right,mismatchStimuli/AmbRusMismav.wav,ambiguous,1,,,,,0,108,108,47,,,,,,,None,None,right,1,0.683995731175,None,,,2016_Mar_07_1500,60.048976318,mismatchTask,001,ROT4pre,
РОМ,234,mis,104,22,right,mismatchStimuli/AmbRusMisrat.wav,ambiguous,1,,,,,0,109,109,51,,,,,,,None,None,right,1,1.0177797738,None,,,2016_Mar_07_1500,60.048976318,mismatchTask,001,ROT4pre,
KОЛ,141,mis,496,22,right,mismatchStimuli/RusMisshal.wav,russian,1,,,,,0,110,110,247,,,,,,,None,None,right,1,0.900542247808,None,,,2016_Mar_07_1500,60.048976318,mismatchTask,001,ROT4pre,
PAH,233,mis,6,12,right,mismatchStimuli/AmbEngMispap.wav,ambiguous,1,,,,,0,111,111,2,,,,,,,None,None,left,0,0.650432038121,None,,,2016_Mar_07_1500,60.048976318,mismatchTask,001,ROT4pre,
WAR,122,mis,235,12,right,mismatchStimuli/EngMiskar.wav,english,1,,,,,0,112,112,117,,,,,,,None,None,right,1,0.634151546983,None,,,2016_Mar_07_1500,60.048976318,mismatchTask,001,ROT4pre,
PAM,234,match,17,11,left,mismatchStimuli/AmbEngMatchpaam.wav,ambiguous,1,,,,,0,113,113,8,,,,,,,None,None,left,1,0.65087692719,None,,,2016_Mar_07_1500,60.048976318,mismatchTask,001,ROT4pre,
KOB,243,mis,166,12,right,mismatchStimuli/AmbEngMistobe.wav,ambiguous,1,,,,,0,114,114,82,,,,,,,None,None,right,1,0.617374834139,None,,,2016_Mar_07_1500,60.048976318,mismatchTask,001,ROT4pre,
KOB,243,mis,168,22,right,mismatchStimuli/AmbRusMiskam.wav,ambiguous,1,,,,,0,115,115,83,,,,,,,None,None,right,1,1.28411474079,None,,,2016_Mar_07_1500,60.048976318,mismatchTask,001,ROT4pre,
НОK,234,mis,118,12,right,mismatchStimuli/AmbEngMishote.wav,ambiguous,1,,,,,0,116,116,58,,,,,,,None,None,right,1,0.900609714445,None,,,2016_Mar_07_1500,60.048976318,mismatchTask,001,ROT4pre,
РОK,234,match,99,21,left,mismatchStimuli/AmbRusMatchrok.wav,ambiguous,1,,,,,0,117,117,49,,,,,,,None,None,right,0,0.783597077243,None,,,2016_Mar_07_1500,60.048976318,mismatchTask,001,ROT4pre,
ТОЖ,141,mis,528,22,right,mismatchStimuli/RusMislazh.wav,russian,1,,,,,0,118,118,263,,,,,,,None,None,right,1,0.684319375781,None,,,2016_Mar_07_1500,60.048976318,mismatchTask,001,ROT4pre,
HOM,234,match,123,21,left,mismatchStimuli/AmbRusMatchnom.wav,ambiguous,1,,,,,0,119,119,61,,,,,,,None,None,right,0,1.01799341803,None,,,2016_Mar_07_1500,60.048976318,mismatchTask,001,ROT4pre,
KOT,244,match,310,11,left,mismatchStimuli/EngMatchkat.wav,english,1,,,,,0,120,120,154,,,,,,,None,None,left,1,0.917608383344,None,,,2016_Mar_07_1500,60.048976318,mismatchTask,001,ROT4pre,
ROW,122,mis,184,12,right,mismatchStimuli/EngMisraj.wav,english,1,,,,,0,121,121,91,,,,,,,None,None,right,1,0.951062076492,None,,,2016_Mar_07_1500,60.048976318,mismatchTask,001,ROT4pre,
LOD,122,match,294,11,left,mismatchStimuli/EngMatchlad.wav,english,1,,,,,0,122,122,146,,,,,,,None,None,left,1,0.817790948087,None,,,2016_Mar_07_1500,60.048976318,mismatchTask,001,ROT4pre,
HAP,233,match,27,21,left,mismatchStimuli/AmbRusMatchnar.wav,ambiguous,1,,,,,0,123,123,13,,,,,,,None,None,right,0,0.784324544016,None,,,2016_Mar_07_1500,60.048976318,mismatchTask,001,ROT4pre,
ЧАЦ,111,match,401,21,left,mismatchStimuli/RusMatchchats.wav,russian,1,,,,,0,124,124,200,,,,,,,None,None,right,0,0.850904863561,None,,,2016_Mar_07_1500,60.048976318,mismatchTask,001,ROT4pre,
ФОЛ,111,mis,443,22,right,mismatchStimuli/RusMisfam.wav,russian,1,,,,,0,125,125,221,,,,,,,None,None,right,1,0.867635132279,None,,,2016_Mar_07_1500,60.048976318,mismatchTask,001,ROT4pre,
НАK,234,match,35,21,left,mismatchStimuli/AmbRusMatchnak.wav,ambiguous,1,,,,,0,126,126,17,,,,,,,None,None,right,0,0.767094630748,None,,,2016_Mar_07_1500,60.048976318,mismatchTask,001,ROT4pre,
ФАД,111,match,438,21,left,mismatchStimuli/RusMatchfad.wav,russian,1,,,,,0,127,127,218,,,,,,,None,None,right,0,0.733883915469,None,,,2016_Mar_07_1500,60.048976318,mismatchTask,001,ROT4pre,
KАН,243,match,73,11,left,mismatchStimuli/AmbEngMatchka.wav,ambiguous,1,,,,,0,128,128,36,,,,,,,None,None,left,1,0.800690101692,None,,,2016_Mar_07_1500,60.048976318,mismatchTask,001,ROT4pre,
МАР,243,match,67,21,left,mismatchStimuli/AmbRusMatchmar.wav,ambiguous,1,,,,,0,129,129,33,,,,,,,None,None,right,0,0.801463035168,None,,,2016_Mar_07_1500,60.048976318,mismatchTask,001,ROT4pre,
MOB,243,match,169,11,left,mismatchStimuli/AmbEngMatchmab.wav,ambiguous,1,,,,,0,130,130,84,,,,,,,None,None,left,1,0.800901790382,None,,,2016_Mar_07_1500,60.048976318,mismatchTask,001,ROT4pre,
MAG,142,mis,336,12,right,mismatchStimuli/EngMiskag.wav,english,1,,,,,0,131,131,167,,,,,,,None,None,right,1,0.63376532495,None,,,2016_Mar_07_1500,60.048976318,mismatchTask,001,ROT4pre,
ROW,122,match,182,11,left,mismatchStimuli/EngMatchrow.wav,english,1,,,,,0,132,132,90,,,,,,,None,None,left,1,0.784851077478,None,,,2016_Mar_07_1500,60.048976318,mismatchTask,001,ROT4pre,
MAW,142,mis,331,12,right,mismatchStimuli/EngMistaa.wav,english,1,,,,,0,133,133,165,,,,,,,None,None,right,1,0.800871479558,None,,,2016_Mar_07_1500,60.048976318,mismatchTask,001,ROT4pre,
MOM,244,match,326,11,left,mismatchStimuli/EngMatchmam.wav,english,1,,,,,0,134,134,162,,,,,,,None,None,left,1,0.734396759886,None,,,2016_Mar_07_1500,60.048976318,mismatchTask,001,ROT4pre,
JOT,124,match,198,11,left,mismatchStimuli/EngMatchjat.wav,english,1,,,,,0,135,135,98,,,,,,,None,None,left,1,0.767554675229,None,,,2016_Mar_07_1500,60.048976318,mismatchTask,001,ROT4pre,
PAB,233,match,9,11,left,mismatchStimuli/AmbEngMatchpaab.wav,ambiguous,1,,,,,0,136,136,4,,,,,,,None,None,left,1,0.700282577891,None,,,2016_Mar_07_1500,60.048976318,mismatchTask,001,ROT4pre,
DAF,122,match,249,11,left,mismatchStimuli/EngMatchdaaf.wav,english,1,,,,,0,137,137,124,,,,,,,None,None,left,1,0.967223767191,None,,,2016_Mar_07_1500,60.048976318,mismatchTask,001,ROT4pre,
НОВ,233,match,115,21,left,mismatchStimuli/AmbRusMatchnov.wav,ambiguous,1,,,,,0,138,138,57,,,,,,,None,None,right,0,1.33475825819,None,,,2016_Mar_07_1500,60.048976318,mismatchTask,001,ROT4pre,
ЛОЧ,111,mis,475,22,right,mismatchStimuli/RusMislats.wav,russian,1,,,,,0,139,139,237,,,,,,,None,None,right,1,0.63343728031,None,,,2016_Mar_07_1500,60.048976318,mismatchTask,001,ROT4pre,
JOF,122,match,206,11,left,mismatchStimuli/EngMatchjaf.wav,english,1,,,,,0,140,140,102,,,,,,,None,None,left,1,0.900499714306,None,,,2016_Mar_07_1500,60.048976318,mismatchTask,001,ROT4pre,
WOR,122,mis,219,12,right,mismatchStimuli/EngMiswaf.wav,english,1,,,,,0,141,141,109,,,,,,,None,None,right,1,0.734667604323,None,,,2016_Mar_07_1500,60.048976318,mismatchTask,001,ROT4pre,
ЖОМ,114,mis,379,22,right,mismatchStimuli/RusMiszhat.wav,russian,1,,,,,0,142,142,189,,,,,,,None,None,right,1,1.01737986272,None,,,2016_Mar_07_1500,60.048976318,mismatchTask,001,ROT4pre,
HOM,234,match,121,11,left,mismatchStimuli/AmbEngMatchham.wav,ambiguous,1,,,,,0,143,143,60,,,,,,,None,None,left,1,0.917339983163,None,,,2016_Mar_07_1500,60.048976318,mismatchTask,001,ROT4pre,
KAR,142,mis,315,12,right,mismatchStimuli/EngMiscode.wav,english,1,,,,,0,144,144,157,,,,,,,None,None,right,1,0.83411055035,None,,,2016_Mar_07_1500,60.048976318,mismatchTask,001,ROT4pre,
GOR,122,mis,275,12,right,mismatchStimuli/EngMisdare.wav,english,1,,,,,0,145,145,137,,,,,,,None,None,right,1,0.700921066804,None,,,2016_Mar_07_1500,60.048976318,mismatchTask,001,ROT4pre,
HOT,234,mis,128,22,right,mismatchStimuli/AmbRusMisnam.wav,ambiguous,1,,,,,0,146,146,63,,,,,,,None,None,right,1,0.650948793627,None,,,2016_Mar_07_1500,60.048976318,mismatchTask,001,ROT4pre,
ROJ,122,match,177,11,left,mismatchStimuli/EngMatchraj.wav,english,1,,,,,0,147,147,88,,,,,,,None,None,left,1,0.942196075106,None,,,2016_Mar_07_1500,60.048976318,mismatchTask,001,ROT4pre,
ЛАФ,111,match,465,21,left,mismatchStimuli/RusMatchlaf.wav,russian,1,,,,,0,148,148,232,,,,,,,None,None,right,0,0.851010952611,None,,,2016_Mar_07_1500,60.048976318,mismatchTask,001,ROT4pre,
GOR,122,match,273,11,left,mismatchStimuli/EngMatchgor.wav,english,1,,,,,0,149,149,136,,,,,,,None,None,left,1,0.667359329294,None,,,2016_Mar_07_1500,60.048976318,mismatchTask,001,ROT4pre,
ROJ,122,mis,179,12,right,mismatchStimuli/EngMisrow.wav,english,1,,,,,0,150,150,89,,,,,,,None,None,right,1,1.00119519397,None,,,2016_Mar_07_1500,60.048976318,mismatchTask,001,ROT4pre,
ВАВ,233,match,51,21,left,mismatchStimuli/AmbRusMatchvav.wav,ambiguous,1,,,,,0,151,151,25,,,,,,,None,None,right,0,0.617736123037,None,,,2016_Mar_07_1500,60.048976318,mismatchTask,001,ROT4pre,
ЦОТ,114,match,398,21,left,mismatchStimuli/RusMatchtsot.wav,russian,1,,,,,0,152,152,198,,,,,,,None,None,left,1,1.36804475146,None,,,2016_Mar_07_1500,60.048976318,mismatchTask,001,ROT4pre,
WOG,122,match,222,11,left,mismatchStimuli/EngMatchwag.wav,english,1,,,,,0,153,153,110,,,,,,,None,None,left,1,0.917623050045,None,,,2016_Mar_07_1500,60.048976318,mismatchTask,001,ROT4pre,
ТАР,243,mis,72,22,right,mismatchStimuli/AmbRusMismer.wav,ambiguous,1,,,,,0,154,154,35,,,,,,,None,None,right,1,1.55065455241,None,,,2016_Mar_07_1500,60.048976318,mismatchTask,001,ROT4pre,
МОЦ,141,match,505,21,left,mismatchStimuli/RusMatchmots.wav,russian,1,,,,,0,155,155,252,,,,,,,None,None,right,0,1.16750788153,None,,,2016_Mar_07_1500,60.048976318,mismatchTask,001,ROT4pre,
ДАK,114,match,422,21,left,mismatchStimuli/RusMatchdak.wav,russian,1,,,,,0,156,156,210,,,,,,,None,None,left,1,1.96823807224,None,,,2016_Mar_07_1500,60.048976318,mismatchTask,001,ROT4pre,
RAF,122,match,185,11,left,mismatchStimuli/EngMatchraaf.wav,english,1,,,,,0,157,157,92,,,,,,,None,None,left,1,0.867225443479,None,,,2016_Mar_07_1500,60.048976318,mismatchTask,001,ROT4pre,
ТАВ,243,mis,86,12,right,mismatchStimuli/AmbEngMismab.wav,ambiguous,1,,,,,0,158,158,42,,,,,,,None,None,right,1,0.667001951253,None,,,2016_Mar_07_1500,60.048976318,mismatchTask,001,ROT4pre,
LAM,124,mis,304,12,right,mismatchStimuli/EngMisgam.wav,english,1,,,,,0,159,159,151,,,,,,,None,None,right,1,0.567389849806,None,,,2016_Mar_07_1500,60.048976318,mismatchTask,001,ROT4pre,
MOM,244,mis,328,12,right,mismatchStimuli/EngMismoke.wav,english,1,,,,,0,160,160,163,,,,,,,None,None,right,1,0.917659716448,None,,,2016_Mar_07_1500,60.048976318,mismatchTask,001,ROT4pre,
ВАН,233,mis,48,22,right,mismatchStimuli/AmbRusMisken.wav,ambiguous,1,,,,,0,161,161,23,,,,,,,None,None,right,1,1.41794906906,None,,,2016_Mar_07_1500,60.048976318,mismatchTask,001,ROT4pre,
ТАН,243,mis,78,12,right,mismatchStimuli/AmbEngMisba.wav,ambiguous,1,,,,,0,162,162,38,,,,,,,None,None,right,1,0.700978266774,None,,,2016_Mar_07_1500,60.048976318,mismatchTask,001,ROT4pre,
HAB,233,mis,32,22,right,mismatchStimuli/AmbRusMistev.wav,ambiguous,1,,,,,0,163,163,15,,,,,,,None,None,right,1,0.56815202767,None,,,2016_Mar_07_1500,60.048976318,mismatchTask,001,ROT4pre,
RAJ,122,mis,195,12,right,mismatchStimuli/EngMiswaj.wav,english,1,,,,,0,164,164,97,,,,,,,None,None,right,1,0.984120747307,None,,,2016_Mar_07_1500,60.048976318,mismatchTask,001,ROT4pre,
ТАВ,243,mis,88,22,right,mismatchStimuli/AmbRusMistet.wav,ambiguous,1,,,,,0,165,165,43,,,,,,,None,None,right,1,0.684649375733,None,,,2016_Mar_07_1500,60.048976318,mismatchTask,001,ROT4pre,
ЩОД,111,match,361,21,left,mismatchStimuli/RusMatchshod.wav,russian,1,,,,,0,166,166,180,,,,,,,None,None,right,0,0.850993352477,None,,,2016_Mar_07_1500,60.048976318,mismatchTask,001,ROT4pre,
KАР,243,mis,64,22,right,mismatchStimuli/AmbRusMisver.wav,ambiguous,1,,,,,0,167,167,31,,,,,,,None,None,right,1,0.717452846467,None,,,2016_Mar_07_1500,60.048976318,mismatchTask,001,ROT4pre,
KАВ,243,match,81,11,left,mismatchStimuli/AmbEngMatchkaab.wav,ambiguous,1,,,,,0,168,168,40,,,,,,,None,None,left,1,0.817825170467,None,,,2016_Mar_07_1500,60.048976318,mismatchTask,001,ROT4pre,
TAM,244,match,518,21,left,mismatchStimuli/RusMatchtam.wav,russian,1,,,,,0,169,169,258,,,,,,,None,None,left,1,0.884539934574,None,,,2016_Mar_07_1500,60.048976318,mismatchTask,001,ROT4pre,
ЦОГ,111,match,393,21,left,mismatchStimuli/RusMatchtsog.wav,russian,1,,,,,0,170,170,196,,,,,,,None,None,right,0,0.800727746217,None,,,2016_Mar_07_1500,60.048976318,mismatchTask,001,ROT4pre,
BOK,234,mis,144,22,right,mismatchStimuli/AmbRusMiskak.wav,ambiguous,1,,,,,0,171,171,71,,,,,,,None,None,right,1,1.03341102018,None,,,2016_Mar_07_1500,60.048976318,mismatchTask,001,ROT4pre,
BOP,233,match,129,11,left,mismatchStimuli/AmbEngMatchbap.wav,ambiguous,1,,,,,0,172,172,64,,,,,,,None,None,left,1,1.05085995584,None,,,2016_Mar_07_1500,60.048976318,mismatchTask,001,ROT4pre,
ВАМ,234,match,57,11,left,mismatchStimuli/AmbEngMatchbaam.wav,ambiguous,1,,,,,0,173,173,28,,,,,,,None,None,left,1,0.88453260134,None,,,2016_Mar_07_1500,60.048976318,mismatchTask,001,ROT4pre,
KОЛ,141,match,494,21,left,mismatchStimuli/RusMatchkol.wav,russian,1,,,,,0,174,174,246,,,,,,,None,None,right,0,0.817072770558,None,,,2016_Mar_07_1500,60.048976318,mismatchTask,001,ROT4pre,
HAB,233,mis,30,12,right,mismatchStimuli/AmbEngMishat.wav,ambiguous,1,,,,,0,175,175,14,,,,,,,None,None,left,0,0.633647991577,None,,,2016_Mar_07_1500,60.048976318,mismatchTask,001,ROT4pre,
TOG,142,mis,339,12,right,mismatchStimuli/EngMismoge.wav,english,1,,,,,0,176,176,169,,,,,,,None,None,right,1,0.717912891181,None,,,2016_Mar_07_1500,60.048976318,mismatchTask,001,ROT4pre,
BOB,233,match,137,11,left,mismatchStimuli/AmbEngMatchbab.wav,ambiguous,1,,,,,0,177,177,68,,,,,,,None,None,left,1,0.73382133781,None,,,2016_Mar_07_1500,60.048976318,mismatchTask,001,ROT4pre,
GAK,124,mis,283,12,right,mismatchStimuli/EngMisgat.wav,english,1,,,,,0,178,178,141,,,,,,,None,None,left,0,0.65088132699,None,,,2016_Mar_07_1500,60.048976318,mismatchTask,001,ROT4pre,
HOT,234,mis,126,12,right,mismatchStimuli/AmbEngMispote.wav,ambiguous,1,,,,,0,179,179,62,,,,,,,None,None,left,0,1.21781797684,None,,,2016_Mar_07_1500,60.048976318,mismatchTask,001,ROT4pre,
ТАН,243,mis,80,22,right,mismatchStimuli/AmbRusMistek.wav,ambiguous,1,,,,,0,180,180,39,,,,,,,None,None,right,1,0.884272512281,None,,,2016_Mar_07_1500,60.048976318,mismatchTask,001,ROT4pre,
MOK,244,mis,323,12,right,mismatchStimuli/EngMismome.wav,english,1,,,,,0,181,181,161,,,,,,,None,None,right,1,1.26751793874,None,,,2016_Mar_07_1500,60.048976318,mismatchTask,001,ROT4pre,
DAG,122,mis,256,12,right,mismatchStimuli/EngMisdaf.wav,english,1,,,,,0,182,182,127,,,,,,,None,None,left,0,0.650253104744,None,,,2016_Mar_07_1500,60.048976318,mismatchTask,001,ROT4pre,
BOM,234,match,145,11,left,mismatchStimuli/AmbEngMatchbam.wav,ambiguous,1,,,,,0,183,183,72,,,,,,,None,None,left,1,0.834643928334,None,,,2016_Mar_07_1500,60.048976318,mismatchTask,001,ROT4pre,
ЦОГ,111,mis,395,22,right,mismatchStimuli/RusMischag.wav,russian,1,,,,,0,184,184,197,,,,,,,None,None,right,1,0.550983714405,None,,,2016_Mar_07_1500,60.048976318,mismatchTask,001,ROT4pre,
НОР,233,mis,112,22,right,mismatchStimuli/AmbRusMisnat.wav,ambiguous,1,,,,,0,185,185,55,,,,,,,None,None,right,1,0.984721591696,None,,,2016_Mar_07_1500,60.048976318,mismatchTask,001,ROT4pre,
ТОЖ,141,match,526,21,left,mismatchStimuli/RusMatchtozh.wav,russian,1,,,,,0,186,186,262,,,,,,,None,None,right,0,0.867942643585,None,,,2016_Mar_07_1500,60.048976318,mismatchTask,001,ROT4pre,
JAL,122,match,214,11,left,mismatchStimuli/EngMatchjaal.wav,english,1,,,,,0,187,187,106,,,,,,,None,None,right,0,0.934628563235,None,,,2016_Mar_07_1500,60.048976318,mismatchTask,001,ROT4pre,
DOL,122,match,246,11,left,mismatchStimuli/EngMatchdoll.wav,english,1,,,,,0,188,188,122,,,,,,,None,None,left,1,0.784363166429,None,,,2016_Mar_07_1500,60.048976318,mismatchTask,001,ROT4pre,
ГАЦ,111,mis,451,22,right,mismatchStimuli/RusMisgem.wav,russian,1,,,,,0,189,189,225,,,,,,,None,None,right,1,0.633901236113,None,,,2016_Mar_07_1500,60.048976318,mismatchTask,001,ROT4pre,
KAM,244,mis,488,22,right,mismatchStimuli/RusMisked.wav,russian,1,,,,,0,190,190,243,,,,,,,None,None,left,0,0.567421627697,None,,,2016_Mar_07_1500,60.048976318,mismatchTask,001,ROT4pre,
ВАВ,233,match,49,11,left,mismatchStimuli/AmbEngMatchbaab.wav,ambiguous,1,,,,,0,191,191,24,,,,,,,None,None,left,1,0.967906745151,None,,,2016_Mar_07_1500,60.048976318,mismatchTask,001,ROT4pre,
ГОK,114,match,462,21,left,mismatchStimuli/RusMatchgok.wav,russian,1,,,,,0,192,192,230,,,,,,,None,None,right,0,0.817939570406,None,,,2016_Mar_07_1500,60.048976318,mismatchTask,001,ROT4pre,
DOL,122,mis,248,12,right,mismatchStimuli/EngMisfoal.wav,english,1,,,,,0,193,193,123,,,,,,,None,None,right,1,0.750687517459,None,,,2016_Mar_07_1500,60.048976318,mismatchTask,001,ROT4pre,
MAW,142,match,329,11,left,mismatchStimuli/EngMatchmaw.wav,english,1,,,,,0,194,194,164,,,,,,,None,None,left,1,2.01826118981,None,,,2016_Mar_07_1500,60.048976318,mismatchTask,001,ROT4pre,
PAP,233,match,1,11,left,mismatchStimuli/AmbEngMatchpaap.wav,ambiguous,1,,,,,0,195,195,0,,,,,,,None,None,left,1,0.684028975666,None,,,2016_Mar_07_1500,60.048976318,mismatchTask,001,ROT4pre,
KАР,243,mis,62,12,right,mismatchStimuli/AmbEngMiska.wav,ambiguous,1,,,,,0,196,196,30,,,,,,,None,None,right,1,0.750850317767,None,,,2016_Mar_07_1500,60.048976318,mismatchTask,001,ROT4pre,
PAP,233,match,3,21,left,mismatchStimuli/AmbRusMatchrar.wav,ambiguous,1,,,,,0,197,197,1,,,,,,,None,None,right,0,0.66723270691,None,,,2016_Mar_07_1500,60.048976318,mismatchTask,001,ROT4pre,
ВАK,234,mis,56,22,right,mismatchStimuli/AmbRusMisvev.wav,ambiguous,1,,,,,0,198,198,27,,,,,,,None,None,right,1,0.767579608597,None,,,2016_Mar_07_1500,60.048976318,mismatchTask,001,ROT4pre,
BOT,234,mis,150,12,right,mismatchStimuli/AmbEngMismote.wav,ambiguous,1,,,,,0,199,199,74,,,,,,,None,None,right,1,0.683482397813,None,,,2016_Mar_07_1500,60.048976318,mismatchTask,001,ROT4pre,
ЖАK,114,mis,376,22,right,mismatchStimuli/RusMisdek.wav,russian,1,,,,,0,200,200,187,,,,,,,None,None,right,1,1.41813386884,None,,,2016_Mar_07_1500,60.048976318,mismatchTask,001,ROT4pre,
ЩАЧ,111,match,358,21,left,mismatchStimuli/RusMatchshach.wav,russian,1,,,,,0,201,201,178,,,,,,,None,None,right,0,0.217142472044,None,,,2016_Mar_07_1500,60.048976318,mismatchTask,001,ROT4pre,
РОР,233,match,91,21,left,mismatchStimuli/AmbRusMatchror.wav,ambiguous,1,,,,,0,202,202,45,,,,,,,None,None,right,0,1.70136483829,None,,,2016_Mar_07_1500,60.048976318,mismatchTask,001,ROT4pre,
PAK,234,mis,16,22,right,mismatchStimuli/AmbRusMisret.wav,ambiguous,1,,,,,0,203,203,7,,,,,,,None,None,right,1,0.950211898424,None,,,2016_Mar_07_1500,60.048976318,mismatchTask,001,ROT4pre,
ЛОЩ,111,mis,480,22,right,mismatchStimuli/RusMislach.wav,russian,1,,,,,0,204,204,239,,,,,,,None,None,right,1,1.00104021607,None,,,2016_Mar_07_1500,60.048976318,mismatchTask,001,ROT4pre,
ГОФ,111,match,457,21,left,mismatchStimuli/RusMatchgof.wav,russian,1,,,,,0,205,205,228,,,,,,,None,None,right,0,1.00133599387,None,,,2016_Mar_07_1500,60.048976318,mismatchTask,001,ROT4pre,
TAK,244,mis,347,12,right,mismatchStimuli/EngMistam.wav,english,1,,,,,0,206,206,173,,,,,,,None,None,right,1,0.917632338824,None,,,2016_Mar_07_1500,60.048976318,mismatchTask,001,ROT4pre,
KОЦ,141,mis,491,22,right,mismatchStimuli/RusMismats.wav,russian,1,,,,,0,207,207,245,,,,,,,None,None,right,1,0.600794654107,None,,,2016_Mar_07_1500,60.048976318,mismatchTask,001,ROT4pre,
ДАK,114,mis,424,22,right,mismatchStimuli/RusMisdeg.wav,russian,1,,,,,0,208,208,211,,,,,,,None,None,right,1,1.13408841076,None,,,2016_Mar_07_1500,60.048976318,mismatchTask,001,ROT4pre,
ЩАЖ,111,match,353,21,left,mismatchStimuli/RusMatchshazh.wav,russian,1,,,,,0,209,209,176,,,,,,,None,None,right,0,1.05074115563,None,,,2016_Mar_07_1500,60.048976318,mismatchTask,001,ROT4pre,
РОK,234,match,97,11,left,mismatchStimuli/AmbEngMatchpak.wav,ambiguous,1,,,,,0,210,210,48,,,,,,,None,None,left,1,0.80124303489,None,,,2016_Mar_07_1500,60.048976318,mismatchTask,001,ROT4pre,
KAD,142,match,318,11,left,mismatchStimuli/EngMatchkaad.wav,english,1,,,,,0,211,211,158,,,,,,,None,None,left,1,0.751223339932,None,,,2016_Mar_07_1500,60.048976318,mismatchTask,001,ROT4pre,
TOH,243,match,161,11,left,mismatchStimuli/AmbEngMatchto.wav,ambiguous,1,,,,,0,212,212,80,,,,,,,None,None,left,1,0.667549506994,None,,,2016_Mar_07_1500,60.048976318,mismatchTask,001,ROT4pre,
PAB,233,match,11,21,left,mismatchStimuli/AmbRusMatchrav.wav,ambiguous,1,,,,,0,213,213,5,,,,,,,None,None,right,0,0.851203085855,None,,,2016_Mar_07_1500,60.048976318,mismatchTask,001,ROT4pre,
KOT,244,mis,312,12,right,mismatchStimuli/EngMismote.wav,english,1,,,,,0,214,214,155,,,,,,,None,None,right,1,0.684289553436,None,,,2016_Mar_07_1500,60.048976318,mismatchTask,001,ROT4pre,
PAK,234,mis,14,12,right,mismatchStimuli/AmbEngMiskak.wav,ambiguous,1,,,,,0,215,215,6,,,,,,,None,None,right,1,1.15103427949,None,,,2016_Mar_07_1500,60.048976318,mismatchTask,001,ROT4pre,
MAT,244,mis,504,22,right,mismatchStimuli/RusMislet.wav,russian,1,,,,,0,216,216,251,,,,,,,None,None,right,1,0.849843485747,None,,,2016_Mar_07_1500,60.048976318,mismatchTask,001,ROT4pre,
FAM,124,mis,267,12,right,mismatchStimuli/EngMislam.wav,english,1,,,,,0,217,217,133,,,,,,,None,None,right,1,1.00068626041,None,,,2016_Mar_07_1500,60.048976318,mismatchTask,001,ROT4pre,
KOM,244,mis,307,12,right,mismatchStimuli/EngMislome.wav,english,1,,,,,0,218,218,153,,,,,,,None,None,right,1,0.800834812922,None,,,2016_Mar_07_1500,60.048976318,mismatchTask,001,ROT4pre,
WAD,122,match,238,11,left,mismatchStimuli/EngMatchwad.wav,english,1,,,,,0,219,219,118,,,,,,,None,None,left,1,0.751145117683,None,,,2016_Mar_07_1500,60.048976318,mismatchTask,001,ROT4pre,
BOH,233,mis,136,22,right,mismatchStimuli/AmbRusMisran.wav,ambiguous,1,,,,,0,220,220,67,,,,,,,None,None,right,1,1.26721531642,None,,,2016_Mar_07_1500,60.048976318,mismatchTask,001,ROT4pre,
ТОФ,141,mis,523,22,right,mismatchStimuli/RusMisdaf.wav,russian,1,,,,,0,221,221,261,,,,,,,None,None,right,1,0.734199737664,None,,,2016_Mar_07_1500,60.048976318,mismatchTask,001,ROT4pre,
РОТ,234,match,107,21,left,mismatchStimuli/AmbRusMatchrot.wav,ambiguous,1,,,,,0,222,222,53,,,,,,,None,None,right,0,0.667581773596,None,,,2016_Mar_07_1500,60.048976318,mismatchTask,001,ROT4pre,
ЧАЦ,111,mis,403,22,right,mismatchStimuli/RusMisgets.wav,russian,1,,,,,0,223,223,201,,,,,,,None,None,right,1,0.767287741881,None,,,2016_Mar_07_1500,60.048976318,mismatchTask,001,ROT4pre,
НОР,233,mis,110,12,right,mismatchStimuli/AmbEngMisbope.wav,ambiguous,1,,,,,0,224,224,54,,,,,,,None,None,right,1,1.40141875576,None,,,2016_Mar_07_1500,60.048976318,mismatchTask,001,ROT4pre,
ЩОГ,111,match,366,21,left,mismatchStimuli/RusMatchshog.wav,russian,1,,,,,0,225,225,182,,,,,,,None,None,right,0,1.26818967215,None,,,2016_Mar_07_1500,60.048976318,mismatchTask,001,ROT4pre,
ЩОГ,111,mis,368,22,right,mismatchStimuli/RusMistsag.wav,russian,1,,,,,0,226,226,183,,,,,,,None,None,right,1,0.851054463768,None,,,2016_Mar_07_1500,60.048976318,mismatchTask,001,ROT4pre,
НОK,234,mis,120,22,right,mismatchStimuli/AmbRusMismak.wav,ambiguous,1,,,,,0,227,227,59,,,,,,,None,None,right,1,0.683537642471,None,,,2016_Mar_07_1500,60.048976318,mismatchTask,001,ROT4pre,
LOK,124,mis,291,12,right,mismatchStimuli/EngMislode.wav,english,1,,,,,0,228,228,145,,,,,,,None,None,right,1,0.950844520703,None,,,2016_Mar_07_1500,60.048976318,mismatchTask,001,ROT4pre,
ФАЩ,111,mis,435,22,right,mismatchStimuli/RusMiszhesh.wav,russian,1,,,,,0,229,229,217,,,,,,,None,None,right,1,0.767870497424,None,,,2016_Mar_07_1500,60.048976318,mismatchTask,001,ROT4pre,
ДОЩ,111,match,425,21,left,mismatchStimuli/RusMatchdosh.wav,russian,1,,,,,0,230,230,212,,,,,,,None,None,right,0,0.933762740809,None,,,2016_Mar_07_1500,60.048976318,mismatchTask,001,ROT4pre,
ЧОK,114,match,414,21,left,mismatchStimuli/RusMatchchok.wav,russian,1,,,,,0,231,231,206,,,,,,,None,None,left,1,1.28442665213,None,,,2016_Mar_07_1500,60.048976318,mismatchTask,001,ROT4pre,
TOD,142,match,342,11,left,mismatchStimuli/EngMatchtad.wav,english,1,,,,,0,232,232,170,,,,,,,None,None,left,1,0.800473524025,None,,,2016_Mar_07_1500,60.048976318,mismatchTask,001,ROT4pre,
ЩАЖ,111,mis,355,22,right,mismatchStimuli/RusMisshech.wav,russian,1,,,,,0,233,233,177,,,,,,,None,None,right,1,0.834095883649,None,,,2016_Mar_07_1500,60.048976318,mismatchTask,001,ROT4pre,
ФАЩ,111,match,433,21,left,mismatchStimuli/RusMatchfash.wav,russian,1,,,,,0,234,234,216,,,,,,,None,None,right,0,0.817084503826,None,,,2016_Mar_07_1500,60.048976318,mismatchTask,001,ROT4pre,
LOD,122,mis,296,12,right,mismatchStimuli/EngMisloke.wav,english,1,,,,,0,235,235,147,,,,,,,None,None,right,1,1.16802757047,None,,,2016_Mar_07_1500,60.048976318,mismatchTask,001,ROT4pre,
ЖОМ,114,match,377,21,left,mismatchStimuli/RusMatchzhom.wav,russian,1,,,,,0,236,236,188,,,,,,,None,None,left,1,0.784130944172,None,,,2016_Mar_07_1500,60.048976318,mismatchTask,001,ROT4pre,
FOJ,122,match,257,11,left,mismatchStimuli/EngMatchfaj.wav,english,1,,,,,0,237,237,128,,,,,,,None,None,left,1,0.934958074242,None,,,2016_Mar_07_1500,60.048976318,mismatchTask,001,ROT4pre,
DOR,122,mis,243,12,right,mismatchStimuli/EngMisgar.wav,english,1,,,,,0,238,238,121,,,,,,,None,None,right,1,0.651227460476,None,,,2016_Mar_07_1500,60.048976318,mismatchTask,001,ROT4pre,
KOH,243,mis,160,22,right,mismatchStimuli/AmbRusMistan.wav,ambiguous,1,,,,,0,239,239,79,,,,,,,None,None,right,1,0.800262812758,None,,,2016_Mar_07_1500,60.048976318,mismatchTask,001,ROT4pre,
ВАР,233,match,41,11,left,mismatchStimuli/AmbEngMatchbaap.wav,ambiguous,1,,,,,0,240,240,20,,,,,,,None,None,left,1,0.80100103491,None,,,2016_Mar_07_1500,60.048976318,mismatchTask,001,ROT4pre,
НАK,234,match,33,11,left,mismatchStimuli/AmbEngMatchhaak.wav,ambiguous,1,,,,,0,241,241,16,,,,,,,None,None,left,1,0.634018569486,None,,,2016_Mar_07_1500,60.048976318,mismatchTask,001,ROT4pre,
ТАЛ,141,mis,515,22,right,mismatchStimuli/RusMistem.wav,russian,1,,,,,0,242,242,257,,,,,,,None,None,right,1,0.817395437043,None,,,2016_Mar_07_1500,60.048976318,mismatchTask,001,ROT4pre,
ЦАЖ,111,mis,387,22,right,mismatchStimuli/RusMistsech.wav,russian,1,,,,,0,243,243,193,,,,,,,None,None,right,1,0.899756603176,None,,,2016_Mar_07_1500,60.048976318,mismatchTask,001,ROT4pre,
МАР,243,match,65,11,left,mismatchStimuli/AmbEngMatchmaap.wav,ambiguous,1,,,,,0,244,244,32,,,,,,,None,None,left,1,0.700879511191,None,,,2016_Mar_07_1500,60.048976318,mismatchTask,001,ROT4pre,
KАФ,141,mis,483,22,right,mismatchStimuli/RusMiskem.wav,russian,1,,,,,0,245,245,241,,,,,,,None,None,right,1,0.818055926124,None,,,2016_Mar_07_1500,60.048976318,mismatchTask,001,ROT4pre,
ЩОД,111,mis,363,22,right,mismatchStimuli/RusMischad.wav,russian,1,,,,,0,246,246,181,,,,,,,None,None,right,1,1.43409120431,None,,,2016_Mar_07_1500,60.048976318,mismatchTask,001,ROT4pre,
ЛАТ,114,mis,472,22,right,mismatchStimuli/RusMismet.wav,russian,1,,,,,0,247,247,235,,,,,,,None,None,right,1,1.08483724878,None,,,2016_Mar_07_1500,60.048976318,mismatchTask,001,ROT4pre,
МОЖ,141,mis,512,22,right,mismatchStimuli/RusMismaf.wav,russian,1,,,,,0,248,248,255,,,,,,,None,None,left,0,0.901220825501,None,,,2016_Mar_07_1500,60.048976318,mismatchTask,001,ROT4pre,
ФАД,111,mis,440,22,right,mismatchStimuli/RusMisged.wav,russian,1,,,,,0,249,249,219,,,,,,,None,None,right,1,0.800877834903,None,,,2016_Mar_07_1500,60.048976318,mismatchTask,001,ROT4pre,
WAR,122,match,233,11,left,mismatchStimuli/EngMatchwar.wav,english,1,,,,,0,250,250,116,,,,,,,None,None,left,1,0.683465286857,None,,,2016_Mar_07_1500,60.048976318,mismatchTask,001,ROT4pre,
ЦОТ,114,mis,400,22,right,mismatchStimuli/RusMiszhat.wav,russian,1,,,,,0,251,251,199,,,,,,,None,None,left,0,1.36781106261,None,,,2016_Mar_07_1500,60.048976318,mismatchTask,001,ROT4pre,
RAJ,122,match,193,11,left,mismatchStimuli/EngMatchraaj.wav,english,1,,,,,0,252,252,96,,,,,,,None,None,left,1,0.867360865697,None,,,2016_Mar_07_1500,60.048976318,mismatchTask,001,ROT4pre,
ТАЛ,141,match,513,21,left,mismatchStimuli/RusMatchtal.wav,russian,1,,,,,0,253,253,256,,,,,,,None,None,right,0,1.10135973967,None,,,2016_Mar_07_1500,60.048976318,mismatchTask,001,ROT4pre,
ДОЧ,111,mis,432,22,right,mismatchStimuli/RusMiszhach.wav,russian,1,,,,,0,254,254,215,,,,,,,None,None,right,1,0.834083661437,None,,,2016_Mar_07_1500,60.048976318,mismatchTask,001,ROT4pre,
WOF,122,mis,227,12,right,mismatchStimuli/EngMiswoge.wav,english,1,,,,,0,255,255,113,,,,,,,None,None,right,1,1.00057626027,None,,,2016_Mar_07_1500,60.048976318,mismatchTask,001,ROT4pre,
ФОЛ,111,match,441,21,left,mismatchStimuli/RusMatchfol.wav,russian,1,,,,,0,256,256,220,,,,,,,None,None,right,0,1.25083998102,None,,,2016_Mar_07_1500,60.048976318,mismatchTask,001,ROT4pre,
ДОЧ,111,match,430,21,left,mismatchStimuli/RusMatchdoch.wav,russian,1,,,,,0,257,257,214,,,,,,,None,None,right,0,0.751017517643,None,,,2016_Mar_07_1500,60.048976318,mismatchTask,001,ROT4pre,
JAR,122,match,209,11,left,mismatchStimuli/EngMatchjar.wav,english,1,,,,,0,258,258,104,,,,,,,None,None,left,1,0.700507466681,None,,,2016_Mar_07_1500,60.048976318,mismatchTask,001,ROT4pre,
WOR,122,match,217,11,left,mismatchStimuli/EngMatchwor.wav,english,1,,,,,0,259,259,108,,,,,,,None,None,left,1,1.91832397692,None,,,2016_Mar_07_1500,60.048976318,mismatchTask,001,ROT4pre,
FOL,122,mis,264,12,right,mismatchStimuli/EngMisfoje.wav,english,1,,,,,0,260,260,131,,,,,,,None,None,right,1,1.13449076633,None,,,2016_Mar_07_1500,60.048976318,mismatchTask,001,ROT4pre,
TAK,244,match,345,11,left,mismatchStimuli/EngMatchtaak.wav,english,1,,,,,0,261,261,172,,,,,,,None,None,right,0,0.96892754524,None,,,2016_Mar_07_1500,60.048976318,mismatchTask,001,ROT4pre,
ГАД,111,match,454,21,left,mismatchStimuli/RusMatchgad.wav,russian,1,,,,,0,262,262,226,,,,,,,None,None,right,0,1.08422613773,None,,,2016_Mar_07_1500,60.048976318,mismatchTask,001,ROT4pre,
ФОМ,114,mis,448,22,right,mismatchStimuli/RusMisfal.wav,russian,1,,,,,0,263,263,223,,,,,,,None,None,right,1,1.46752583073,None,,,2016_Mar_07_1500,60.048976318,mismatchTask,001,ROT4pre,
,,,,,,,,,,,,,,,,,,,,,,,,,,,,,space,93.8846305883,2016_Mar_07_1500,60.048976318,mismatchTask,001,ROT4pre,
GOR,122,mis,276,12,right,mismatchStimuli/EngMisdare.wav,english,2,,,,,,,,,0,0,0,137,,,None,None,right,1,1.15034396807,None,,,2016_Mar_07_1500,60.048976318,mismatchTask,001,ROT4pre,
KАН,243,mis,74,12,right,mismatchStimuli/AmbEngMista.wav,ambiguous,2,,,,,,,,,0,1,1,36,,,None,None,left,0,0.717802891275,None,,,2016_Mar_07_1500,60.048976318,mismatchTask,001,ROT4pre,
KАН,243,mis,76,22,right,mismatchStimuli/AmbRusMisket.wav,ambiguous,2,,,,,,,,,0,2,2,37,,,None,None,right,1,0.517865399132,None,,,2016_Mar_07_1500,60.048976318,mismatchTask,001,ROT4pre,
МАР,243,mis,68,22,right,mismatchStimuli/AmbRusMisker.wav,ambiguous,2,,,,,,,,,0,3,3,33,,,None,None,right,1,0.550772025483,None,,,2016_Mar_07_1500,60.048976318,mismatchTask,001,ROT4pre,
KAR,142,mis,316,12,right,mismatchStimuli/EngMiscode.wav,english,2,,,,,,,,,0,4,4,157,,,None,None,right,1,0.651236260543,None,,,2016_Mar_07_1500,60.048976318,mismatchTask,001,ROT4pre,
ЧОД,111,mis,412,22,right,mismatchStimuli/RusMischak.wav,russian,2,,,,,,,,,0,5,5,205,,,None,None,right,1,0.833694017027,None,,,2016_Mar_07_1500,60.048976318,mismatchTask,001,ROT4pre,
GAT,124,mis,287,12,right,mismatchStimuli/EngMisgak.wav,english,2,,,,,,,,,0,6,6,143,,,None,None,right,1,1.11788565316,None,,,2016_Mar_07_1500,60.048976318,mismatchTask,001,ROT4pre,
DOR,122,match,242,11,left,mismatchStimuli/EngMatchdor.wav,english,2,,,,,,,,,0,7,7,120,,,None,None,left,1,0.685089376057,None,,,2016_Mar_07_1500,60.048976318,mismatchTask,001,ROT4pre,
FAT,124,match,269,11,left,mismatchStimuli/EngMatchfaat.wav,english,2,,,,,,,,,0,8,8,134,,,None,None,left,1,0.716992313275,None,,,2016_Mar_07_1500,60.048976318,mismatchTask,001,ROT4pre,
TOD,142,match,341,11,left,mismatchStimuli/EngMatchtad.wav,english,2,,,,,,,,,0,9,9,170,,,None,None,left,1,0.951154965209,None,,,2016_Mar_07_1500,60.048976318,mismatchTask,001,ROT4pre,
TAW,142,mis,351,12,right,mismatchStimuli/EngMatchtaak.wav,english,2,,,,,,,,,0,10,10,175,,,None,None,right,1,0.76719729742,None,,,2016_Mar_07_1500,60.048976318,mismatchTask,001,ROT4pre,
НАK,234,mis,34,12,right,mismatchStimuli/AmbEngMistak.wav,ambiguous,2,,,,,,,,,0,11,11,16,,,None,None,right,1,0.667109017959,None,,,2016_Mar_07_1500,60.048976318,mismatchTask,001,ROT4pre,
МОЖ,141,mis,511,22,right,mismatchStimuli/RusMismaf.wav,russian,2,,,,,,,,,0,12,12,255,,,None,None,right,1,1.08410831541,None,,,2016_Mar_07_1500,60.048976318,mismatchTask,001,ROT4pre,
RAJ,122,match,194,11,left,mismatchStimuli/EngMatchraaj.wav,english,2,,,,,,,,,0,13,13,96,,,None,None,left,1,0.767663697479,None,,,2016_Mar_07_1500,60.048976318,mismatchTask,001,ROT4pre,
KАВ,243,mis,84,22,right,mismatchStimuli/AmbRusMismev.wav,ambiguous,2,,,,,,,,,0,14,14,41,,,None,None,right,1,0.800552723929,None,,,2016_Mar_07_1500,60.048976318,mismatchTask,001,ROT4pre,
TOG,142,mis,340,12,right,mismatchStimuli/EngMismoge.wav,english,2,,,,,,,,,0,15,15,169,,,None,None,right,1,0.834383350331,None,,,2016_Mar_07_1500,60.048976318,mismatchTask,001,ROT4pre,
KАР,243,match,63,21,left,mismatchStimuli/AmbRusMatchkar.wav,ambiguous,2,,,,,,,,,0,16,16,31,,,None,None,right,0,1.38458044245,None,,,2016_Mar_07_1500,60.048976318,mismatchTask,001,ROT4pre,
DAG,122,match,253,11,left,mismatchStimuli/EngMatchdaag.wav,english,2,,,,,,,,,0,17,17,126,,,None,None,left,1,0.834434683667,None,,,2016_Mar_07_1500,60.048976318,mismatchTask,001,ROT4pre,
RAL,122,match,189,11,left,mismatchStimuli/EngMatchraal.wav,english,2,,,,,,,,,0,18,18,94,,,None,None,left,1,1.03483808693,None,,,2016_Mar_07_1500,60.048976318,mismatchTask,001,ROT4pre,
ЧОK,114,mis,415,22,right,mismatchStimuli/RusMischaf.wav,russian,2,,,,,,,,,0,19,19,207,,,None,None,right,1,1.10112262866,None,,,2016_Mar_07_1500,60.048976318,mismatchTask,001,ROT4pre,
ФОМ,114,mis,447,22,right,mismatchStimuli/RusMisfal.wav,russian,2,,,,,,,,,0,20,20,223,,,None,None,right,1,0.884299401194,None,,,2016_Mar_07_1500,60.048976318,mismatchTask,001,ROT4pre,
KОЦ,141,mis,492,22,right,mismatchStimuli/RusMismats.wav,russian,2,,,,,,,,,0,21,21,245,,,None,None,right,1,1.33410656941,None,,,2016_Mar_07_1500,60.048976318,mismatchTask,001,ROT4pre,
ГОФ,111,mis,460,22,right,mismatchStimuli/RusMistaf.wav,russian,2,,,,,,,,,0,22,22,229,,,None,None,right,1,0.800804012921,None,,,2016_Mar_07_1500,60.048976318,mismatchTask,001,ROT4pre,
WOF,122,mis,228,12,right,mismatchStimuli/EngMiswoge.wav,english,2,,,,,,,,,0,23,23,113,,,None,None,right,1,0.950917853974,None,,,2016_Mar_07_1500,60.048976318,mismatchTask,001,ROT4pre,
TAM,244,mis,519,22,right,mismatchStimuli/RusMistek.wav,russian,2,,,,,,,,,0,24,24,259,,,None,None,right,1,0.817197925877,None,,,2016_Mar_07_1500,60.048976318,mismatchTask,001,ROT4pre,
ФАЩ,111,match,434,21,left,mismatchStimuli/RusMatchfash.wav,russian,2,,,,,,,,,0,25,25,216,,,None,None,right,0,0.967389989411,None,,,2016_Mar_07_1500,60.048976318,mismatchTask,001,ROT4pre,
KOM,244,match,306,11,left,mismatchStimuli/EngMatchkam.wav,english,2,,,,,,,,,0,26,26,152,,,None,None,left,1,0.750860095257,None,,,2016_Mar_07_1500,60.048976318,mismatchTask,001,ROT4pre,
ЖАЩ,111,match,370,21,left,mismatchStimuli/RusMatchzhash.wav,russian,2,,,,,,,,,0,27,27,184,,,None,None,right,0,0.934215451824,None,,,2016_Mar_07_1500,60.048976318,mismatchTask,001,ROT4pre,
ЖАK,114,mis,375,22,right,mismatchStimuli/RusMisdek.wav,russian,2,,,,,,,,,0,28,28,187,,,None,None,right,1,0.801568146097,None,,,2016_Mar_07_1500,60.048976318,mismatchTask,001,ROT4pre,
LAJ,122,mis,300,12,right,mismatchStimuli/EngMisraj.wav,english,2,,,,,,,,,0,29,29,149,,,None,None,right,1,0.718159291195,None,,,2016_Mar_07_1500,60.048976318,mismatchTask,001,ROT4pre,
GAK,124,mis,284,12,right,mismatchStimuli/EngMisgat.wav,english,2,,,,,,,,,0,30,30,141,,,None,None,right,1,1.15126552386,None,,,2016_Mar_07_1500,60.048976318,mismatchTask,001,ROT4pre,
ЩОГ,111,mis,367,22,right,mismatchStimuli/RusMistsag.wav,russian,2,,,,,,,,,0,31,31,183,,,None,None,right,1,0.917808827478,None,,,2016_Mar_07_1500,60.048976318,mismatchTask,001,ROT4pre,
BOM,234,mis,146,12,right,mismatchStimuli/AmbEngMiskome.wav,ambiguous,2,,,,,,,,,0,32,32,72,,,None,None,right,1,1.35142106051,None,,,2016_Mar_07_1500,60.048976318,mismatchTask,001,ROT4pre,
RAJ,122,mis,196,12,right,mismatchStimuli/EngMiswaj.wav,english,2,,,,,,,,,0,33,33,97,,,None,None,right,1,0.634079191601,None,,,2016_Mar_07_1500,60.048976318,mismatchTask,001,ROT4pre,
FOL,122,mis,263,12,right,mismatchStimuli/EngMisfoje.wav,english,2,,,,,,,,,0,34,34,131,,,None,None,right,1,0.817609570455,None,,,2016_Mar_07_1500,60.048976318,mismatchTask,001,ROT4pre,
ЖАЩ,111,mis,372,22,right,mismatchStimuli/RusMisfesh.wav,russian,2,,,,,,,,,0,35,35,185,,,None,None,right,1,1.00104901614,None,,,2016_Mar_07_1500,60.048976318,mismatchTask,001,ROT4pre,
GOW,122,match,277,11,left,mismatchStimuli/EngMatchgow.wav,english,2,,,,,,,,,0,36,36,138,,,None,None,left,1,0.817924903939,None,,,2016_Mar_07_1500,60.048976318,mismatchTask,001,ROT4pre,
ДАK,114,mis,423,22,right,mismatchStimuli/RusMisdeg.wav,russian,2,,,,,,,,,0,37,37,211,,,None,None,right,1,0.701002711197,None,,,2016_Mar_07_1500,60.048976318,mismatchTask,001,ROT4pre,
FOL,122,match,261,11,left,mismatchStimuli/EngMatchfall.wav,english,2,,,,,,,,,0,38,38,130,,,None,None,left,1,0.650786482729,None,,,2016_Mar_07_1500,60.048976318,mismatchTask,001,ROT4pre,
PAH,233,match,5,11,left,mismatchStimuli/AmbEngMatchpa.wav,ambiguous,2,,,,,,,,,0,39,39,2,,,None,None,left,1,1.0342998202,None,,,2016_Mar_07_1500,60.048976318,mismatchTask,001,ROT4pre,
TAW,142,match,349,11,left,mismatchStimuli/EngMatchtaw.wav,english,2,,,,,,,,,0,40,40,174,,,None,None,left,1,1.11754098651,None,,,2016_Mar_07_1500,60.048976318,mismatchTask,001,ROT4pre,
FOJ,122,mis,260,12,right,mismatchStimuli/EngMisfoal.wav,english,2,,,,,,,,,0,41,41,129,,,None,None,right,1,0.750828806311,None,,,2016_Mar_07_1500,60.048976318,mismatchTask,001,ROT4pre,
НАТ,234,match,39,21,left,mismatchStimuli/AmbRusMatchnat.wav,ambiguous,2,,,,,,,,,0,42,42,19,,,None,None,right,0,0.717347735539,None,,,2016_Mar_07_1500,60.048976318,mismatchTask,001,ROT4pre,
ЛАТ,114,match,469,21,left,mismatchStimuli/RusMatchlat.wav,russian,2,,,,,,,,,0,43,43,234,,,None,None,left,1,2.25179464137,None,,,2016_Mar_07_1500,60.048976318,mismatchTask,001,ROT4pre,
ВАМ,234,mis,60,22,right,mismatchStimuli/AmbRusMisvek.wav,ambiguous,2,,,,,,,,,0,44,44,29,,,None,None,right,1,0.884214334656,None,,,2016_Mar_07_1500,60.048976318,mismatchTask,001,ROT4pre,
ФАД,111,match,437,21,left,mismatchStimuli/RusMatchfad.wav,russian,2,,,,,,,,,0,45,45,218,,,None,None,right,0,0.884078423493,None,,,2016_Mar_07_1500,60.048976318,mismatchTask,001,ROT4pre,
ЛАТ,114,mis,471,22,right,mismatchStimuli/RusMismet.wav,russian,2,,,,,,,,,0,46,46,235,,,None,None,right,1,0.867287532426,None,,,2016_Mar_07_1500,60.048976318,mismatchTask,001,ROT4pre,
ЦАЧ,111,match,389,21,left,mismatchStimuli/RusMatchtsach.wav,russian,2,,,,,,,,,0,47,47,194,,,None,None,right,0,0.884440690046,None,,,2016_Mar_07_1500,60.048976318,mismatchTask,001,ROT4pre,
ЩОД,111,match,362,21,left,mismatchStimuli/RusMatchshod.wav,russian,2,,,,,,,,,0,48,48,180,,,None,None,right,0,0.933603852056,None,,,2016_Mar_07_1500,60.048976318,mismatchTask,001,ROT4pre,
ЩОГ,111,match,365,21,left,mismatchStimuli/RusMatchshog.wav,russian,2,,,,,,,,,0,49,49,182,,,None,None,right,0,0.917186471866,None,,,2016_Mar_07_1500,60.048976318,mismatchTask,001,ROT4pre,
ЩАЧ,111,mis,359,22,right,mismatchStimuli/RusMisshezh.wav,russian,2,,,,,,,,,0,50,50,179,,,None,None,right,1,0.667551951483,None,,,2016_Mar_07_1500,60.048976318,mismatchTask,001,ROT4pre,
MAG,142,match,333,11,left,mismatchStimuli/EngMatchmaag.wav,english,2,,,,,,,,,0,51,51,166,,,None,None,left,1,0.600532609737,None,,,2016_Mar_07_1500,60.048976318,mismatchTask,001,ROT4pre,
ЧОД,111,match,410,21,left,mismatchStimuli/RusMatchchod.wav,russian,2,,,,,,,,,0,52,52,204,,,None,None,right,0,0.734443204477,None,,,2016_Mar_07_1500,60.048976318,mismatchTask,001,ROT4pre,
FAM,124,mis,268,12,right,mismatchStimuli/EngMislam.wav,english,2,,,,,,,,,0,53,53,133,,,None,None,right,1,0.667249329155,None,,,2016_Mar_07_1500,60.048976318,mismatchTask,001,ROT4pre,
MOB,243,mis,170,12,right,mismatchStimuli/AmbEngMismope.wav,ambiguous,2,,,,,,,,,0,54,54,84,,,None,None,right,1,1.53416041704,None,,,2016_Mar_07_1500,60.048976318,mismatchTask,001,ROT4pre,
RAF,122,mis,188,12,right,mismatchStimuli/EngMisjaf.wav,english,2,,,,,,,,,0,55,55,93,,,None,None,right,1,0.767595253186,None,,,2016_Mar_07_1500,60.048976318,mismatchTask,001,ROT4pre,
РОВ,233,match,95,21,left,mismatchStimuli/AmbRusMatchrov.wav,ambiguous,2,,,,,,,,,0,56,56,47,,,None,None,right,0,0.70032511116,None,,,2016_Mar_07_1500,60.048976318,mismatchTask,001,ROT4pre,
PAB,233,mis,10,12,right,mismatchStimuli/AmbEngMispak.wav,ambiguous,2,,,,,,,,,0,57,57,4,,,None,None,right,1,1.31684781169,None,,,2016_Mar_07_1500,60.048976318,mismatchTask,001,ROT4pre,
ЧАГ,111,mis,407,22,right,mismatchStimuli/RusMiskeg.wav,russian,2,,,,,,,,,0,58,58,203,,,None,None,right,1,0.684523731237,None,,,2016_Mar_07_1500,60.048976318,mismatchTask,001,ROT4pre,
GOR,122,match,274,11,left,mismatchStimuli/EngMatchgor.wav,english,2,,,,,,,,,0,59,59,136,,,None,None,left,1,0.801127657294,None,,,2016_Mar_07_1500,60.048976318,mismatchTask,001,ROT4pre,
JAL,122,match,213,11,left,mismatchStimuli/EngMatchjaal.wav,english,2,,,,,,,,,0,60,60,106,,,None,None,left,1,0.701198755763,None,,,2016_Mar_07_1500,60.048976318,mismatchTask,001,ROT4pre,
KАФ,141,mis,484,22,right,mismatchStimuli/RusMiskem.wav,russian,2,,,,,,,,,0,61,61,241,,,None,None,right,1,0.767135208473,None,,,2016_Mar_07_1500,60.048976318,mismatchTask,001,ROT4pre,
ЛОЧ,111,match,474,21,left,mismatchStimuli/RusMatchloch.wav,russian,2,,,,,,,,,0,62,62,236,,,None,None,right,0,1.1012864064,None,,,2016_Mar_07_1500,60.048976318,mismatchTask,001,ROT4pre,
KOH,243,match,157,11,left,mismatchStimuli/AmbEngMatchko.wav,ambiguous,2,,,,,,,,,0,63,63,78,,,None,None,left,1,0.950601054123,None,,,2016_Mar_07_1500,60.048976318,mismatchTask,001,ROT4pre,
ЦОТ,114,match,397,21,left,mismatchStimuli/RusMatchtsot.wav,russian,2,,,,,,,,,0,64,64,198,,,None,None,right,0,0.567843049765,None,,,2016_Mar_07_1500,60.048976318,mismatchTask,001,ROT4pre,
МОЦ,141,mis,508,22,right,mismatchStimuli/RusMismazh.wav,russian,2,,,,,,,,,0,65,65,253,,,None,None,right,1,0.884341934463,None,,,2016_Mar_07_1500,60.048976318,mismatchTask,001,ROT4pre,
ЧАЦ,111,match,402,21,left,mismatchStimuli/RusMatchchats.wav,russian,2,,,,,,,,,0,66,66,200,,,None,None,right,0,0.867713843472,None,,,2016_Mar_07_1500,60.048976318,mismatchTask,001,ROT4pre,
ВАK,234,match,55,21,left,mismatchStimuli/AmbRusMatchvak.wav,ambiguous,2,,,,,,,,,0,67,67,27,,,None,None,right,0,0.700436088955,None,,,2016_Mar_07_1500,60.048976318,mismatchTask,001,ROT4pre,
LAJ,122,match,298,11,left,mismatchStimuli/EngMatchlaaj.wav,english,2,,,,,,,,,0,68,68,148,,,None,None,left,1,0.684207909275,None,,,2016_Mar_07_1500,60.048976318,mismatchTask,001,ROT4pre,
MAT,244,match,501,21,left,mismatchStimuli/RusMatchmat.wav,russian,2,,,,,,,,,0,69,69,250,,,None,None,left,1,0.73456591554,None,,,2016_Mar_07_1500,60.048976318,mismatchTask,001,ROT4pre,
ЖОМ,114,match,378,21,left,mismatchStimuli/RusMatchzhom.wav,russian,2,,,,,,,,,0,70,70,188,,,None,None,left,1,0.950863587437,None,,,2016_Mar_07_1500,60.048976318,mismatchTask,001,ROT4pre,
MAT,244,mis,503,22,right,mismatchStimuli/RusMislet.wav,russian,2,,,,,,,,,0,71,71,251,,,None,None,right,1,0.767584986286,None,,,2016_Mar_07_1500,60.048976318,mismatchTask,001,ROT4pre,
BOM,234,mis,148,22,right,mismatchStimuli/AmbRusMisvat.wav,ambiguous,2,,,,,,,,,0,72,72,73,,,None,None,right,1,0.876236644574,None,,,2016_Mar_07_1500,60.048976318,mismatchTask,001,ROT4pre,
WAJ,122,match,229,11,left,mismatchStimuli/EngMatchwaaj.wav,english,2,,,,,,,,,0,73,73,114,,,None,None,left,1,0.834191217087,None,,,2016_Mar_07_1500,60.048976318,mismatchTask,001,ROT4pre,
РОK,234,mis,100,22,right,mismatchStimuli/AmbRusMistak.wav,ambiguous,2,,,,,,,,,0,74,74,49,,,None,None,right,1,1.20115810796,None,,,2016_Mar_07_1500,60.048976318,mismatchTask,001,ROT4pre,
ЛОЧ,111,mis,476,22,right,mismatchStimuli/RusMislats.wav,russian,2,,,,,,,,,0,75,75,237,,,None,None,right,1,0.650658393744,None,,,2016_Mar_07_1500,60.048976318,mismatchTask,001,ROT4pre,
FAM,124,match,266,11,left,mismatchStimuli/EngMatchfaam.wav,english,2,,,,,,,,,0,76,76,132,,,None,None,left,1,0.650873504812,None,,,2016_Mar_07_1500,60.048976318,mismatchTask,001,ROT4pre,
РОМ,234,match,103,21,left,mismatchStimuli/AmbRusMatchrom.wav,ambiguous,2,,,,,,,,,0,77,77,51,,,None,None,right,0,1.1680945484,None,,,2016_Mar_07_1500,60.048976318,mismatchTask,001,ROT4pre,
РОТ,234,mis,108,22,right,mismatchStimuli/AmbRusMismat.wav,ambiguous,2,,,,,,,,,0,78,78,53,,,None,None,right,1,0.966981278267,None,,,2016_Mar_07_1500,60.048976318,mismatchTask,001,ROT4pre,
MOP,243,mis,154,12,right,mismatchStimuli/AmbEngMishope.wav,ambiguous,2,,,,,,,,,0,79,79,76,,,None,None,right,1,0.784306455171,None,,,2016_Mar_07_1500,60.048976318,mismatchTask,001,ROT4pre,
TAM,244,match,517,21,left,mismatchStimuli/RusMatchtam.wav,russian,2,,,,,,,,,0,80,80,258,,,None,None,left,1,0.835802594898,None,,,2016_Mar_07_1500,60.048976318,mismatchTask,001,ROT4pre,
ROJ,122,mis,180,12,right,mismatchStimuli/EngMisrow.wav,english,2,,,,,,,,,0,81,81,89,,,None,None,left,0,1.60131713655,None,,,2016_Mar_07_1500,60.048976318,mismatchTask,001,ROT4pre,
ЩАЖ,111,match,354,21,left,mismatchStimuli/RusMatchshazh.wav,russian,2,,,,,,,,,0,82,82,176,,,None,None,right,0,0.867871265858,None,,,2016_Mar_07_1500,60.048976318,mismatchTask,001,ROT4pre,
KOT,244,match,309,11,left,mismatchStimuli/EngMatchkat.wav,english,2,,,,,,,,,0,83,83,154,,,None,None,left,1,0.684071998112,None,,,2016_Mar_07_1500,60.048976318,mismatchTask,001,ROT4pre,
ТАВ,243,match,87,21,left,mismatchStimuli/AmbRusMatchtav.wav,ambiguous,2,,,,,,,,,0,84,84,43,,,None,None,left,1,0.600977009628,None,,,2016_Mar_07_1500,60.048976318,mismatchTask,001,ROT4pre,
KOH,243,match,159,21,left,mismatchStimuli/AmbRusMatchkon.wav,ambiguous,2,,,,,,,,,0,85,85,79,,,None,None,right,0,0.867335932329,None,,,2016_Mar_07_1500,60.048976318,mismatchTask,001,ROT4pre,
LOD,122,mis,295,12,right,mismatchStimuli/EngMisloke.wav,english,2,,,,,,,,,0,86,86,147,,,None,None,right,1,1.05165831139,None,,,2016_Mar_07_1500,60.048976318,mismatchTask,001,ROT4pre,
PAP,233,mis,2,12,right,mismatchStimuli/AmbEngMispat.wav,ambiguous,2,,,,,,,,,0,87,87,0,,,None,None,left,0,0.984031280503,None,,,2016_Mar_07_1500,60.048976318,mismatchTask,001,ROT4pre,
WOR,122,match,218,11,left,mismatchStimuli/EngMatchwor.wav,english,2,,,,,,,,,0,88,88,108,,,None,None,left,1,1.4005426669,None,,,2016_Mar_07_1500,60.048976318,mismatchTask,001,ROT4pre,
ЩАЧ,111,match,357,21,left,mismatchStimuli/RusMatchshach.wav,russian,2,,,,,,,,,0,89,89,178,,,None,None,right,0,0.851023663767,None,,,2016_Mar_07_1500,60.048976318,mismatchTask,001,ROT4pre,
РОР,233,mis,92,22,right,mismatchStimuli/AmbRusMiskar.wav,ambiguous,2,,,,,,,,,0,90,90,45,,,None,None,right,1,0.601250298554,None,,,2016_Mar_07_1500,60.048976318,mismatchTask,001,ROT4pre,
ГОK,114,mis,463,22,right,mismatchStimuli/RusMismak.wav,russian,2,,,,,,,,,0,91,91,231,,,None,None,right,1,0.584112785291,None,,,2016_Mar_07_1500,60.048976318,mismatchTask,001,ROT4pre,
ЖОТ,114,mis,383,22,right,mismatchStimuli/RusMiszham.wav,russian,2,,,,,,,,,0,92,92,191,,,None,None,right,1,0.917955983197,None,,,2016_Mar_07_1500,60.048976318,mismatchTask,001,ROT4pre,
LOD,122,match,293,11,left,mismatchStimuli/EngMatchlad.wav,english,2,,,,,,,,,0,93,93,146,,,None,None,left,1,0.900827270001,None,,,2016_Mar_07_1500,60.048976318,mismatchTask,001,ROT4pre,
DOL,122,match,245,11,left,mismatchStimuli/EngMatchdoll.wav,english,2,,,,,,,,,0,94,94,122,,,None,None,left,1,0.867828732356,None,,,2016_Mar_07_1500,60.048976318,mismatchTask,001,ROT4pre,
ЖАK,114,match,373,21,left,mismatchStimuli/RusMatchzhak.wav,russian,2,,,,,,,,,0,95,95,186,,,None,None,left,1,0.967662300682,None,,,2016_Mar_07_1500,60.048976318,mismatchTask,001,ROT4pre,
TAK,244,mis,348,12,right,mismatchStimuli/EngMistam.wav,english,2,,,,,,,,,0,96,96,173,,,None,None,right,1,0.867539799074,None,,,2016_Mar_07_1500,60.048976318,mismatchTask,001,ROT4pre,
ВАВ,233,mis,52,22,right,mismatchStimuli/AmbRusMisvem.wav,ambiguous,2,,,,,,,,,0,97,97,25,,,None,None,right,1,0.900849758647,None,,,2016_Mar_07_1500,60.048976318,mismatchTask,001,ROT4pre,
DAF,122,match,250,11,left,mismatchStimuli/EngMatchdaaf.wav,english,2,,,,,,,,,0,98,98,124,,,None,None,left,1,0.701102444669,None,,,2016_Mar_07_1500,60.048976318,mismatchTask,001,ROT4pre,
RAL,122,mis,191,12,right,mismatchStimuli/EngMisdal.wav,english,2,,,,,,,,,0,99,99,95,,,None,None,right,1,0.651107193669,None,,,2016_Mar_07_1500,60.048976318,mismatchTask,001,ROT4pre,
ROW,122,match,181,11,left,mismatchStimuli/EngMatchrow.wav,english,2,,,,,,,,,0,100,100,90,,,None,None,left,1,0.617100567324,None,,,2016_Mar_07_1500,60.048976318,mismatchTask,001,ROT4pre,
WAD,122,match,237,11,left,mismatchStimuli/EngMatchwad.wav,english,2,,,,,,,,,0,101,101,118,,,None,None,left,1,0.701055511367,None,,,2016_Mar_07_1500,60.048976318,mismatchTask,001,ROT4pre,
JOW,122,match,202,11,left,mismatchStimuli/EngMatchjow.wav,english,2,,,,,,,,,0,102,102,100,,,None,None,left,1,0.684277331457,None,,,2016_Mar_07_1500,60.048976318,mismatchTask,001,ROT4pre,
ЖОМ,114,mis,380,22,right,mismatchStimuli/RusMiszhat.wav,russian,2,,,,,,,,,0,103,103,189,,,None,None,right,1,1.26838767203,None,,,2016_Mar_07_1500,60.048976318,mismatchTask,001,ROT4pre,
РОТ,234,mis,106,12,right,mismatchStimuli/AmbEngMisnote.wav,ambiguous,2,,,,,,,,,0,104,104,52,,,None,None,right,1,0.650826571509,None,,,2016_Mar_07_1500,60.048976318,mismatchTask,001,ROT4pre,
ЛАФ,111,match,466,21,left,mismatchStimuli/RusMatchlaf.wav,russian,2,,,,,,,,,0,105,105,232,,,None,None,right,0,0.401045384351,None,,,2016_Mar_07_1500,60.048976318,mismatchTask,001,ROT4pre,
MAW,142,match,330,11,left,mismatchStimuli/EngMatchmaw.wav,english,2,,,,,,,,,0,106,106,164,,,None,None,left,1,0.850695130415,None,,,2016_Mar_07_1500,60.048976318,mismatchTask,001,ROT4pre,
ЦАЖ,111,mis,388,22,right,mismatchStimuli/RusMistsech.wav,russian,2,,,,,,,,,0,107,107,193,,,None,None,right,1,0.750589251053,None,,,2016_Mar_07_1500,60.048976318,mismatchTask,001,ROT4pre,
HOM,234,mis,122,12,right,mismatchStimuli/AmbEngMismome.wav,ambiguous,2,,,,,,,,,0,108,108,60,,,None,None,right,1,1.11818143097,None,,,2016_Mar_07_1500,60.048976318,mismatchTask,001,ROT4pre,
МАР,243,mis,66,12,right,mismatchStimuli/AmbEngMismab.wav,ambiguous,2,,,,,,,,,0,109,109,32,,,None,None,left,0,1.29296216415,None,,,2016_Mar_07_1500,60.048976318,mismatchTask,001,ROT4pre,
DAF,122,mis,252,12,right,mismatchStimuli/EngMisdag.wav,english,2,,,,,,,,,0,110,110,125,,,None,None,right,1,1.16774841491,None,,,2016_Mar_07_1500,60.048976318,mismatchTask,001,ROT4pre,
LOK,124,match,290,11,left,mismatchStimuli/EngMatchlak.wav,english,2,,,,,,,,,0,111,111,144,,,None,None,left,1,1.16775721498,None,,,2016_Mar_07_1500,60.048976318,mismatchTask,001,ROT4pre,
BOB,233,mis,140,22,right,mismatchStimuli/AmbRusMisvak.wav,ambiguous,2,,,,,,,,,0,112,112,69,,,None,None,right,1,0.867511932505,None,,,2016_Mar_07_1500,60.048976318,mismatchTask,001,ROT4pre,
ДАГ,111,match,418,21,left,mismatchStimuli/RusMatchdag.wav,russian,2,,,,,,,,,0,113,113,208,,,None,None,right,0,1.00093021593,None,,,2016_Mar_07_1500,60.048976318,mismatchTask,001,ROT4pre,
MAW,142,mis,332,12,right,mismatchStimuli/EngMistaa.wav,english,2,,,,,,,,,0,114,114,165,,,None,None,right,1,0.7678313863,None,,,2016_Mar_07_1500,60.048976318,mismatchTask,001,ROT4pre,
РОР,233,mis,90,12,right,mismatchStimuli/AmbEngMispoke.wav,ambiguous,2,,,,,,,,,0,115,115,44,,,None,None,right,1,1.11745640845,None,,,2016_Mar_07_1500,60.048976318,mismatchTask,001,ROT4pre,
TAK,244,match,346,11,left,mismatchStimuli/EngMatchtaak.wav,english,2,,,,,,,,,0,116,116,172,,,None,None,left,1,1.66782167857,None,,,2016_Mar_07_1500,60.048976318,mismatchTask,001,ROT4pre,
ROJ,122,match,178,11,left,mismatchStimuli/EngMatchraj.wav,english,2,,,,,,,,,0,117,117,88,,,None,None,left,1,0.867359399097,None,,,2016_Mar_07_1500,60.048976318,mismatchTask,001,ROT4pre,
НАK,234,mis,36,22,right,mismatchStimuli/AmbRusMisnet.wav,ambiguous,2,,,,,,,,,0,118,118,17,,,None,None,right,1,0.784358766163,None,,,2016_Mar_07_1500,60.048976318,mismatchTask,001,ROT4pre,
ЩОД,111,mis,364,22,right,mismatchStimuli/RusMischad.wav,russian,2,,,,,,,,,0,119,119,181,,,None,None,right,1,0.634526524926,None,,,2016_Mar_07_1500,60.048976318,mismatchTask,001,ROT4pre,
PAM,234,mis,20,22,right,mismatchStimuli/AmbRusMisrek.wav,ambiguous,2,,,,,,,,,0,120,120,9,,,None,None,right,1,0.734061382245,None,,,2016_Mar_07_1500,60.048976318,mismatchTask,001,ROT4pre,
WAR,122,mis,236,12,right,mismatchStimuli/EngMiskar.wav,english,2,,,,,,,,,0,121,121,117,,,None,None,right,1,0.750927562127,None,,,2016_Mar_07_1500,60.048976318,mismatchTask,001,ROT4pre,
РОМ,234,match,101,11,left,mismatchStimuli/AmbEngMatchpam.wav,ambiguous,2,,,,,,,,,0,122,122,50,,,None,None,left,1,0.750640584156,None,,,2016_Mar_07_1500,60.048976318,mismatchTask,001,ROT4pre,
ФОЛ,111,match,442,21,left,mismatchStimuli/RusMatchfol.wav,russian,2,,,,,,,,,0,123,123,220,,,None,None,right,0,1.00135261612,None,,,2016_Mar_07_1500,60.048976318,mismatchTask,001,ROT4pre,
ТАН,243,match,77,11,left,mismatchStimuli/AmbEngMatchta.wav,ambiguous,2,,,,,,,,,0,124,124,38,,,None,None,left,1,1.01785212918,None,,,2016_Mar_07_1500,60.048976318,mismatchTask,001,ROT4pre,
BOH,233,match,135,21,left,mismatchStimuli/AmbRusMatchvon.wav,ambiguous,2,,,,,,,,,0,125,125,67,,,None,None,right,0,1.18517437251,None,,,2016_Mar_07_1500,60.048976318,mismatchTask,001,ROT4pre,
ЛОЩ,111,mis,479,22,right,mismatchStimuli/RusMislach.wav,russian,2,,,,,,,,,0,126,126,239,,,None,None,right,1,1.38513337588,None,,,2016_Mar_07_1500,60.048976318,mismatchTask,001,ROT4pre,
BOT,234,match,149,11,left,mismatchStimuli/AmbEngMatchbat.wav,ambiguous,2,,,,,,,,,0,127,127,74,,,None,None,left,1,0.867696243571,None,,,2016_Mar_07_1500,60.048976318,mismatchTask,001,ROT4pre,
ДОЧ,111,mis,431,22,right,mismatchStimuli/RusMiszhach.wav,russian,2,,,,,,,,,0,128,128,215,,,None,None,right,1,1.10099600651,None,,,2016_Mar_07_1500,60.048976318,mismatchTask,001,ROT4pre,
PAP,233,mis,4,22,right,mismatchStimuli/AmbRusMister.wav,ambiguous,2,,,,,,,,,0,129,129,1,,,None,None,right,1,0.533627178753,None,,,2016_Mar_07_1500,60.048976318,mismatchTask,001,ROT4pre,
KOB,243,match,165,11,left,mismatchStimuli/AmbEngMatchkab.wav,ambiguous,2,,,,,,,,,0,130,130,82,,,None,None,left,1,0.700820844388,None,,,2016_Mar_07_1500,60.048976318,mismatchTask,001,ROT4pre,
ТОЖ,141,match,525,21,left,mismatchStimuli/RusMatchtozh.wav,russian,2,,,,,,,,,0,131,131,262,,,None,None,right,0,1.11759427516,None,,,2016_Mar_07_1500,60.048976318,mismatchTask,001,ROT4pre,
JOW,122,mis,204,12,right,mismatchStimuli/EngMisroje.wav,english,2,,,,,,,,,0,132,132,101,,,None,None,right,1,0.717763779918,None,,,2016_Mar_07_1500,60.048976318,mismatchTask,001,ROT4pre,
MOM,244,mis,327,12,right,mismatchStimuli/EngMismoke.wav,english,2,,,,,,,,,0,133,133,163,,,None,None,right,1,0.967267278582,None,,,2016_Mar_07_1500,60.048976318,mismatchTask,001,ROT4pre,
НОK,234,match,119,21,left,mismatchStimuli/AmbRusMatchnok.wav,ambiguous,2,,,,,,,,,0,134,134,59,,,None,None,right,0,0.768234230811,None,,,2016_Mar_07_1500,60.048976318,mismatchTask,001,ROT4pre,
MOK,244,match,322,11,left,mismatchStimuli/EngMatchmak.wav,english,2,,,,,,,,,0,135,135,160,,,None,None,left,1,0.684216709109,None,,,2016_Mar_07_1500,60.048976318,mismatchTask,001,ROT4pre,
ТОЖ,141,mis,527,22,right,mismatchStimuli/RusMislazh.wav,russian,2,,,,,,,,,0,136,136,263,,,None,None,right,1,0.934458429925,None,,,2016_Mar_07_1500,60.048976318,mismatchTask,001,ROT4pre,
ВАР,233,mis,44,22,right,mismatchStimuli/AmbRusMisner.wav,ambiguous,2,,,,,,,,,0,137,137,21,,,None,None,right,1,0.867175087798,None,,,2016_Mar_07_1500,60.048976318,mismatchTask,001,ROT4pre,
ЧАЦ,111,mis,404,22,right,mismatchStimuli/RusMisgets.wav,russian,2,,,,,,,,,0,138,138,201,,,None,None,right,1,0.751304495381,None,,,2016_Mar_07_1500,60.048976318,mismatchTask,001,ROT4pre,
KАФ,141,match,482,21,left,mismatchStimuli/RusMatchkaf.wav,russian,2,,,,,,,,,0,139,139,240,,,None,None,right,0,1.11739383079,None,,,2016_Mar_07_1500,60.048976318,mismatchTask,001,ROT4pre,
HAP,233,mis,28,22,right,mismatchStimuli/AmbRusMisrer.wav,ambiguous,2,,,,,,,,,0,140,140,13,,,None,None,right,1,0.742305027787,None,,,2016_Mar_07_1500,60.048976318,mismatchTask,001,ROT4pre,
HOT,234,match,125,11,left,mismatchStimuli/AmbEngMatchhat.wav,ambiguous,2,,,,,,,,,0,141,141,62,,,None,None,left,1,0.733607204165,None,,,2016_Mar_07_1500,60.048976318,mismatchTask,001,ROT4pre,
WAJ,122,mis,231,12,right,mismatchStimuli/EngMislaj.wav,english,2,,,,,,,,,0,142,142,115,,,None,None,right,1,0.900083180983,None,,,2016_Mar_07_1500,60.048976318,mismatchTask,001,ROT4pre,
KOT,244,mis,311,12,right,mismatchStimuli/EngMismote.wav,english,2,,,,,,,,,0,143,143,155,,,None,None,right,1,0.600855765166,None,,,2016_Mar_07_1500,60.048976318,mismatchTask,001,ROT4pre,
МАЛ,141,mis,500,22,right,mismatchStimuli/RusMistel.wav,russian,2,,,,,,,,,0,144,144,249,,,None,None,right,1,0.951254698681,None,,,2016_Mar_07_1500,60.048976318,mismatchTask,001,ROT4pre,
BOP,233,mis,130,12,right,mismatchStimuli/AmbEngMisbote.wav,ambiguous,2,,,,,,,,,0,145,145,64,,,None,None,right,1,0.95007843175,None,,,2016_Mar_07_1500,60.048976318,mismatchTask,001,ROT4pre,
JOF,122,mis,207,12,right,mismatchStimuli/EngMiswofe.wav,english,2,,,,,,,,,0,146,146,103,,,None,None,right,1,0.833390905987,None,,,2016_Mar_07_1500,60.048976318,mismatchTask,001,ROT4pre,
ВАK,234,match,53,11,left,mismatchStimuli/AmbEngMatchbaak.wav,ambiguous,2,,,,,,,,,0,147,147,26,,,None,None,left,1,0.683480931213,None,,,2016_Mar_07_1500,60.048976318,mismatchTask,001,ROT4pre,
WAR,122,match,234,11,left,mismatchStimuli/EngMatchwar.wav,english,2,,,,,,,,,0,148,148,116,,,None,None,left,1,0.584252118599,None,,,2016_Mar_07_1500,60.048976318,mismatchTask,001,ROT4pre,
HAB,233,match,31,21,left,mismatchStimuli/AmbRusMatchnav.wav,ambiguous,2,,,,,,,,,0,149,149,15,,,None,None,right,0,0.584103007568,None,,,2016_Mar_07_1500,60.048976318,mismatchTask,001,ROT4pre,
ТАЛ,141,mis,516,22,right,mismatchStimuli/RusMistem.wav,russian,2,,,,,,,,,0,150,150,257,,,None,None,right,1,0.835345483851,None,,,2016_Mar_07_1500,60.048976318,mismatchTask,001,ROT4pre,
KAM,244,match,485,21,left,mismatchStimuli/RusMatchkam.wav,russian,2,,,,,,,,,0,151,151,242,,,None,None,left,1,0.666697373381,None,,,2016_Mar_07_1500,60.048976318,mismatchTask,001,ROT4pre,
ТАР,243,match,69,11,left,mismatchStimuli/AmbEngMatchtaap.wav,ambiguous,2,,,,,,,,,0,152,152,34,,,None,None,left,1,0.81677552592,None,,,2016_Mar_07_1500,60.048976318,mismatchTask,001,ROT4pre,
PAK,234,match,13,11,left,mismatchStimuli/AmbEngMatchpaak.wav,ambiguous,2,,,,,,,,,0,153,153,6,,,None,None,left,1,0.650818749331,None,,,2016_Mar_07_1500,60.048976318,mismatchTask,001,ROT4pre,
ФАЩ,111,mis,436,22,right,mismatchStimuli/RusMiszhesh.wav,russian,2,,,,,,,,,0,154,154,217,,,None,None,right,1,0.826020415872,None,,,2016_Mar_07_1500,60.048976318,mismatchTask,001,ROT4pre,
ДАГ,111,mis,420,22,right,mismatchStimuli/RusMisdef.wav,russian,2,,,,,,,,,0,155,155,209,,,None,None,right,1,0.717635202454,None,,,2016_Mar_07_1500,60.048976318,mismatchTask,001,ROT4pre,
KOM,244,mis,308,12,right,mismatchStimuli/EngMislome.wav,english,2,,,,,,,,,0,156,156,153,,,None,None,right,1,0.734374271007,None,,,2016_Mar_07_1500,60.048976318,mismatchTask,001,ROT4pre,
PAH,233,match,7,21,left,mismatchStimuli/AmbRusMatchran.wav,ambiguous,2,,,,,,,,,0,157,157,3,,,None,None,right,0,0.735197071219,None,,,2016_Mar_07_1500,60.048976318,mismatchTask,001,ROT4pre,
GOW,122,mis,279,12,right,mismatchStimuli/EngMisjow.wav,english,2,,,,,,,,,0,158,158,139,,,None,None,left,0,1.38431253145,None,,,2016_Mar_07_1500,60.048976318,mismatchTask,001,ROT4pre,
PAT,234,match,21,11,left,mismatchStimuli/AmbEngMatchpaat.wav,ambiguous,2,,,,,,,,,0,159,159,10,,,None,None,left,1,0.733632626478,None,,,2016_Mar_07_1500,60.048976318,mismatchTask,001,ROT4pre,
ТАН,243,match,79,21,left,mismatchStimuli/AmbRusMatchtan.wav,ambiguous,2,,,,,,,,,0,160,160,39,,,None,None,right,0,0.884188912343,None,,,2016_Mar_07_1500,60.048976318,mismatchTask,001,ROT4pre,
НОР,233,match,109,11,left,mismatchStimuli/AmbEngMatchhap.wav,ambiguous,2,,,,,,,,,0,161,161,54,,,None,None,left,1,0.816948103718,None,,,2016_Mar_07_1500,60.048976318,mismatchTask,001,ROT4pre,
ТОФ,141,mis,524,22,right,mismatchStimuli/RusMisdaf.wav,russian,2,,,,,,,,,0,162,162,261,,,None,None,right,1,1.26772180526,None,,,2016_Mar_07_1500,60.048976318,mismatchTask,001,ROT4pre,
PAB,233,mis,12,22,right,mismatchStimuli/AmbRusMiskev.wav,ambiguous,2,,,,,,,,,0,163,163,5,,,None,None,right,1,2.81856702454,None,,,2016_Mar_07_1500,60.048976318,mismatchTask,001,ROT4pre,
KОЛ,141,match,493,21,left,mismatchStimuli/RusMatchkol.wav,russian,2,,,,,,,,,0,164,164,246,,,None,None,right,0,1.13459685538,None,,,2016_Mar_07_1500,60.048976318,mismatchTask,001,ROT4pre,
ДАK,114,match,421,21,left,mismatchStimuli/RusMatchdak.wav,russian,2,,,,,,,,,0,165,165,210,,,None,None,left,1,1.01855808496,None,,,2016_Mar_07_1500,60.048976318,mismatchTask,001,ROT4pre,
ЛАФ,111,mis,468,22,right,mismatchStimuli/RusMiskef.wav,russian,2,,,,,,,,,0,166,166,233,,,None,None,right,1,0.700519199949,None,,,2016_Mar_07_1500,60.048976318,mismatchTask,001,ROT4pre,
МАЛ,141,match,498,21,left,mismatchStimuli/RusMatchmal.wav,russian,2,,,,,,,,,0,167,167,248,,,None,None,right,0,1.36809706269,None,,,2016_Mar_07_1500,60.048976318,mismatchTask,001,ROT4pre,
ГАД,111,mis,455,22,right,mismatchStimuli/RusMisgesh.wav,russian,2,,,,,,,,,0,168,168,227,,,None,None,right,1,0.751189117553,None,,,2016_Mar_07_1500,60.048976318,mismatchTask,001,ROT4pre,
KОЦ,141,match,490,21,left,mismatchStimuli/RusMatchkots.wav,russian,2,,,,,,,,,0,169,169,244,,,None,None,left,1,0.867564243497,None,,,2016_Mar_07_1500,60.048976318,mismatchTask,001,ROT4pre,
НОВ,233,mis,114,12,right,mismatchStimuli/AmbEngMishoke.wav,ambiguous,2,,,,,,,,,0,170,170,56,,,None,None,right,1,0.834312950261,None,,,2016_Mar_07_1500,60.048976318,mismatchTask,001,ROT4pre,
ВАР,233,mis,42,12,right,mismatchStimuli/AmbEngMisbam.wav,ambiguous,2,,,,,,,,,0,171,171,20,,,None,None,right,1,0.917379582999,None,,,2016_Mar_07_1500,60.048976318,mismatchTask,001,ROT4pre,
РОВ,233,match,93,11,left,mismatchStimuli/AmbEngMatchpab.wav,ambiguous,2,,,,,,,,,0,172,172,46,,,None,None,left,1,0.751189606497,None,,,2016_Mar_07_1500,60.048976318,mismatchTask,001,ROT4pre,
MOB,243,mis,172,22,right,mismatchStimuli/AmbRusMistav.wav,ambiguous,2,,,,,,,,,0,173,173,85,,,None,None,right,1,0.551467714598,None,,,2016_Mar_07_1500,60.048976318,mismatchTask,001,ROT4pre,
НОK,234,match,117,11,left,mismatchStimuli/AmbEngMatchhak.wav,ambiguous,2,,,,,,,,,0,174,174,58,,,None,None,left,1,0.767581075197,None,,,2016_Mar_07_1500,60.048976318,mismatchTask,001,ROT4pre,
GAT,124,match,285,11,left,mismatchStimuli/EngMatchgaat.wav,english,2,,,,,,,,,0,175,175,142,,,None,None,left,1,0.800616279477,None,,,2016_Mar_07_1500,60.048976318,mismatchTask,001,ROT4pre,
ЧОK,114,match,413,21,left,mismatchStimuli/RusMatchchok.wav,russian,2,,,,,,,,,0,176,176,206,,,None,None,left,1,1.21767277666,None,,,2016_Mar_07_1500,60.048976318,mismatchTask,001,ROT4pre,
ГАЦ,111,mis,452,22,right,mismatchStimuli/RusMisgem.wav,russian,2,,,,,,,,,0,177,177,225,,,None,None,right,1,0.850694152294,None,,,2016_Mar_07_1500,60.048976318,mismatchTask,001,ROT4pre,
НАТ,234,match,37,11,left,mismatchStimuli/AmbEngMatchhaat.wav,ambiguous,2,,,,,,,,,0,178,178,18,,,None,None,left,1,0.749964450719,None,,,2016_Mar_07_1500,60.048976318,mismatchTask,001,ROT4pre,
WOF,122,match,226,11,left,mismatchStimuli/EngMatchwaf.wav,english,2,,,,,,,,,0,179,179,112,,,None,None,left,1,0.801762724062,None,,,2016_Mar_07_1500,60.048976318,mismatchTask,001,ROT4pre,
HAB,233,match,29,11,left,mismatchStimuli/AmbEngMatchhaab.wav,ambiguous,2,,,,,,,,,0,180,180,14,,,None,None,left,1,0.800939923851,None,,,2016_Mar_07_1500,60.048976318,mismatchTask,001,ROT4pre,
ГОФ,111,match,458,21,left,mismatchStimuli/RusMatchgof.wav,russian,2,,,,,,,,,0,181,181,228,,,None,None,right,0,0.734210004332,None,,,2016_Mar_07_1500,60.048976318,mismatchTask,001,ROT4pre,
JOF,122,match,205,11,left,mismatchStimuli/EngMatchjaf.wav,english,2,,,,,,,,,0,182,182,102,,,None,None,left,1,0.850733752362,None,,,2016_Mar_07_1500,60.048976318,mismatchTask,001,ROT4pre,
FAT,124,mis,271,12,right,mismatchStimuli/EngMisgat.wav,english,2,,,,,,,,,0,183,183,135,,,None,None,right,1,0.601111454191,None,,,2016_Mar_07_1500,60.048976318,mismatchTask,001,ROT4pre,
JOT,124,mis,199,12,right,mismatchStimuli/EngMiscoat.wav,english,2,,,,,,,,,0,184,184,99,,,None,None,right,1,0.66761795152,None,,,2016_Mar_07_1500,60.048976318,mismatchTask,001,ROT4pre,
BOP,233,mis,132,22,right,mismatchStimuli/AmbRusMistar.wav,ambiguous,2,,,,,,,,,0,185,185,65,,,None,None,right,1,0.717881113524,None,,,2016_Mar_07_1500,60.048976318,mismatchTask,001,ROT4pre,
ТАР,243,match,71,21,left,mismatchStimuli/AmbRusMatchtar.wav,ambiguous,2,,,,,,,,,0,186,186,35,,,None,None,right,0,0.75098916213,None,,,2016_Mar_07_1500,60.048976318,mismatchTask,001,ROT4pre,
ТАВ,243,match,85,11,left,mismatchStimuli/AmbEngMatchtaab.wav,ambiguous,2,,,,,,,,,0,187,187,42,,,None,None,left,1,0.700628222432,None,,,2016_Mar_07_1500,60.048976318,mismatchTask,001,ROT4pre,
ФОМ,114,match,445,21,left,mismatchStimuli/RusMatchfom.wav,russian,2,,,,,,,,,0,188,188,222,,,None,None,right,0,1.28387078526,None,,,2016_Mar_07_1500,60.048976318,mismatchTask,001,ROT4pre,
MOM,244,match,325,11,left,mismatchStimuli/EngMatchmam.wav,english,2,,,,,,,,,0,189,189,162,,,None,None,left,1,0.851020241389,None,,,2016_Mar_07_1500,60.048976318,mismatchTask,001,ROT4pre,
ЩАЖ,111,mis,356,22,right,mismatchStimuli/RusMisshech.wav,russian,2,,,,,,,,,0,190,190,177,,,None,None,right,1,0.867751487996,None,,,2016_Mar_07_1500,60.048976318,mismatchTask,001,ROT4pre,
ГАЦ,111,match,450,21,left,mismatchStimuli/RusMatchgats.wav,russian,2,,,,,,,,,0,191,191,224,,,None,None,right,0,0.850317219272,None,,,2016_Mar_07_1500,60.048976318,mismatchTask,001,ROT4pre,
ФАД,111,mis,439,22,right,mismatchStimuli/RusMisged.wav,russian,2,,,,,,,,,0,192,192,219,,,None,None,right,1,0.766900541726,None,,,2016_Mar_07_1500,60.048976318,mismatchTask,001,ROT4pre,
ВАМ,234,mis,58,12,right,mismatchStimuli/AmbEngMisham.wav,ambiguous,2,,,,,,,,,0,193,193,28,,,None,None,right,1,0.600553143071,None,,,2016_Mar_07_1500,60.048976318,mismatchTask,001,ROT4pre,
ДОЧ,111,match,429,21,left,mismatchStimuli/RusMatchdoch.wav,russian,2,,,,,,,,,0,194,194,214,,,None,None,right,0,0.684530575993,None,,,2016_Mar_07_1500,60.048976318,mismatchTask,001,ROT4pre,
ВАН,233,match,47,21,left,mismatchStimuli/AmbRusMatchvan.wav,ambiguous,2,,,,,,,,,0,195,195,23,,,None,None,right,0,0.733875115402,None,,,2016_Mar_07_1500,60.048976318,mismatchTask,001,ROT4pre,
DOL,122,mis,247,12,right,mismatchStimuli/EngMisfoal.wav,english,2,,,,,,,,,0,196,196,123,,,None,None,right,1,0.667297729291,None,,,2016_Mar_07_1500,60.048976318,mismatchTask,001,ROT4pre,
ФОЛ,111,mis,444,22,right,mismatchStimuli/RusMisfam.wav,russian,2,,,,,,,,,0,197,197,221,,,None,None,right,1,0.500642819097,None,,,2016_Mar_07_1500,60.048976318,mismatchTask,001,ROT4pre,
ВАВ,233,mis,50,12,right,mismatchStimuli/AmbEngMispab.wav,ambiguous,2,,,,,,,,,0,198,198,24,,,None,None,left,0,0.734191426774,None,,,2016_Mar_07_1500,60.048976318,mismatchTask,001,ROT4pre,
TOB,243,match,175,12,left,mismatchStimuli/AmbRusMatchtov.wav,ambiguous,2,,,,,,,,,0,199,199,87,,,None,None,right,0,1.13377649942,None,,,2016_Mar_07_1500,60.048976318,mismatchTask,001,ROT4pre,
ДОЩ,111,match,426,21,left,mismatchStimuli/RusMatchdosh.wav,russian,2,,,,,,,,,0,200,200,212,,,None,None,right,0,0.917396694422,None,,,2016_Mar_07_1500,60.048976318,mismatchTask,001,ROT4pre,
МОЦ,141,match,506,21,left,mismatchStimuli/RusMatchmots.wav,russian,2,,,,,,,,,0,201,201,252,,,None,None,left,1,0.850892152404,None,,,2016_Mar_07_1500,60.048976318,mismatchTask,001,ROT4pre,
MOP,243,mis,156,22,right,mismatchStimuli/AmbRusMismam.wav,ambiguous,2,,,,,,,,,0,202,202,77,,,None,None,right,1,0.967930211686,None,,,2016_Mar_07_1500,60.048976318,mismatchTask,001,ROT4pre,
KAD,142,mis,319,12,right,mismatchStimuli/EngMiskar.wav,english,2,,,,,,,,,0,203,203,159,,,None,None,right,1,0.800925746327,None,,,2016_Mar_07_1500,60.048976318,mismatchTask,001,ROT4pre,
BOB,233,mis,138,12,right,mismatchStimuli/AmbEngMismobe.wav,ambiguous,2,,,,,,,,,0,204,204,68,,,None,None,right,1,0.734240315622,None,,,2016_Mar_07_1500,60.048976318,mismatchTask,001,ROT4pre,
BOH,233,match,133,11,left,mismatchStimuli/AmbEngMatchbo.wav,ambiguous,2,,,,,,,,,0,205,205,66,,,None,None,left,1,0.851062774658,None,,,2016_Mar_07_1500,60.048976318,mismatchTask,001,ROT4pre,
JAR,122,mis,212,12,right,mismatchStimuli/EngMisjol.wav,english,2,,,,,,,,,0,206,206,105,,,None,None,right,1,0.784430633066,None,,,2016_Mar_07_1500,60.048976318,mismatchTask,001,ROT4pre,
ЦАЧ,111,mis,391,22,right,mismatchStimuli/RusMistsezh.wav,russian,2,,,,,,,,,0,207,207,195,,,None,None,right,1,0.801497257315,None,,,2016_Mar_07_1500,60.048976318,mismatchTask,001,ROT4pre,
HOT,234,match,127,21,left,mismatchStimuli/AmbRusMatchnot.wav,ambiguous,2,,,,,,,,,0,208,208,63,,,None,None,right,0,0.684421553742,None,,,2016_Mar_07_1500,60.048976318,mismatchTask,001,ROT4pre,
ЖОТ,114,match,381,21,left,mismatchStimuli/RusMatchzhot.wav,russian,2,,,,,,,,,0,209,209,190,,,None,None,left,1,0.717549157795,None,,,2016_Mar_07_1500,60.048976318,mismatchTask,001,ROT4pre,
BOT,234,match,151,21,left,mismatchStimuli/AmbRusMatchvot.wav,ambiguous,2,,,,,,,,,0,210,210,75,,,None,None,right,0,1.30121852085,None,,,2016_Mar_07_1500,60.048976318,mismatchTask,001,ROT4pre,
DOR,122,mis,244,12,right,mismatchStimuli/EngMisgar.wav,english,2,,,,,,,,,0,211,211,121,,,None,None,right,1,0.81753183715,None,,,2016_Mar_07_1500,60.048976318,mismatchTask,001,ROT4pre,
MAG,142,mis,335,12,right,mismatchStimuli/EngMiskag.wav,english,2,,,,,,,,,0,212,212,167,,,None,None,right,1,0.651009904919,None,,,2016_Mar_07_1500,60.048976318,mismatchTask,001,ROT4pre,
TOB,243,match,173,11,left,mismatchStimuli/AmbEngMatchtab.wav,ambiguous,2,,,,,,,,,0,213,213,86,,,None,None,left,1,0.683539109072,None,,,2016_Mar_07_1500,60.048976318,mismatchTask,001,ROT4pre,
JAL,122,mis,215,12,right,mismatchStimuli/EngMisjar.wav,english,2,,,,,,,,,0,214,214,107,,,None,None,right,1,1.20093517471,None,,,2016_Mar_07_1500,60.048976318,mismatchTask,001,ROT4pre,
МОЖ,141,match,509,21,left,mismatchStimuli/RusMatchmozh.wav,russian,2,,,,,,,,,0,215,215,254,,,None,None,left,1,1.05095773353,None,,,2016_Mar_07_1500,60.048976318,mismatchTask,001,ROT4pre,
TOH,243,mis,162,12,right,mismatchStimuli/AmbEngMiskoh.wav,ambiguous,2,,,,,,,,,0,216,216,80,,,None,None,right,1,0.651036304887,None,,,2016_Mar_07_1500,60.048976318,mismatchTask,001,ROT4pre,
ЛОЩ,111,match,477,21,left,mismatchStimuli/RusMatchlosh.wav,russian,2,,,,,,,,,0,217,217,238,,,None,None,right,0,0.683981553419,None,,,2016_Mar_07_1500,60.048976318,mismatchTask,001,ROT4pre,
TOG,142,match,338,11,left,mismatchStimuli/EngMatchtag.wav,english,2,,,,,,,,,0,218,218,168,,,None,None,left,1,0.800960457185,None,,,2016_Mar_07_1500,60.048976318,mismatchTask,001,ROT4pre,
KАВ,243,mis,82,12,right,mismatchStimuli/AmbEngMiskap.wav,ambiguous,2,,,,,,,,,0,219,219,40,,,None,None,left,0,1.10137342871,None,,,2016_Mar_07_1500,60.048976318,mismatchTask,001,ROT4pre,
KAM,244,mis,487,22,right,mismatchStimuli/RusMisked.wav,russian,2,,,,,,,,,0,220,220,243,,,None,None,right,1,0.767639741767,None,,,2016_Mar_07_1500,60.048976318,mismatchTask,001,ROT4pre,
KАР,243,match,61,11,left,mismatchStimuli/AmbEngMatchkaap.wav,ambiguous,2,,,,,,,,,0,221,221,30,,,None,None,left,1,1.25108638126,None,,,2016_Mar_07_1500,60.048976318,mismatchTask,001,ROT4pre,
KAR,142,match,314,11,left,mismatchStimuli/EngMatchkar.wav,english,2,,,,,,,,,0,222,222,156,,,None,None,left,1,0.668002218241,None,,,2016_Mar_07_1500,60.048976318,mismatchTask,001,ROT4pre,
ГАД,111,match,453,21,left,mismatchStimuli/RusMatchgad.wav,russian,2,,,,,,,,,0,223,223,226,,,None,None,right,0,0.851308197016,None,,,2016_Mar_07_1500,60.048976318,mismatchTask,001,ROT4pre,
ТОФ,141,match,522,21,left,mismatchStimuli/RusMatchtof.wav,russian,2,,,,,,,,,0,224,224,260,,,None,None,right,0,1.13459294406,None,,,2016_Mar_07_1500,60.048976318,mismatchTask,001,ROT4pre,
ЦОГ,111,mis,396,22,right,mismatchStimuli/RusMischag.wav,russian,2,,,,,,,,,0,225,225,197,,,None,None,right,1,0.600937898504,None,,,2016_Mar_07_1500,60.048976318,mismatchTask,001,ROT4pre,
WOG,122,mis,223,12,right,mismatchStimuli/EngMiswor.wav,english,2,,,,,,,,,0,226,226,111,,,None,None,right,1,0.700401377864,None,,,2016_Mar_07_1500,60.048976318,mismatchTask,001,ROT4pre,
ДОЩ,111,mis,428,22,right,mismatchStimuli/RusMislash.wav,russian,2,,,,,,,,,0,227,227,213,,,None,None,right,1,1.10104733985,None,,,2016_Mar_07_1500,60.048976318,mismatchTask,001,ROT4pre,
DAG,122,mis,255,12,right,mismatchStimuli/EngMisdaf.wav,english,2,,,,,,,,,0,228,228,127,,,None,None,right,1,0.951021987479,None,,,2016_Mar_07_1500,60.048976318,mismatchTask,001,ROT4pre,
ВАН,233,match,45,11,left,mismatchStimuli/AmbEngMatchba.wav,ambiguous,2,,,,,,,,,0,229,229,22,,,None,None,left,1,0.751098673092,None,,,2016_Mar_07_1500,60.048976318,mismatchTask,001,ROT4pre,
ROW,122,mis,183,12,right,mismatchStimuli/EngMisraj.wav,english,2,,,,,,,,,0,230,230,91,,,None,None,right,1,0.983883636072,None,,,2016_Mar_07_1500,60.048976318,mismatchTask,001,ROT4pre,
ТАЛ,141,match,514,21,left,mismatchStimuli/RusMatchtal.wav,russian,2,,,,,,,,,0,231,231,256,,,None,None,left,1,1.46791791986,None,,,2016_Mar_07_1500,60.048976318,mismatchTask,001,ROT4pre,
ГОK,114,match,461,21,left,mismatchStimuli/RusMatchgok.wav,russian,2,,,,,,,,,0,232,232,230,,,None,None,right,0,0.766845786246,None,,,2016_Mar_07_1500,60.048976318,mismatchTask,001,ROT4pre,
TOD,142,mis,343,12,right,mismatchStimuli/EngMiscode.wav,english,2,,,,,,,,,0,233,233,171,,,None,None,right,1,0.700752888806,None,,,2016_Mar_07_1500,60.048976318,mismatchTask,001,ROT4pre,
ЦОТ,114,mis,399,22,right,mismatchStimuli/RusMiszhat.wav,russian,2,,,,,,,,,0,234,234,199,,,None,None,left,0,1.06719178008,None,,,2016_Mar_07_1500,60.048976318,mismatchTask,001,ROT4pre,
WAD,122,mis,239,12,right,mismatchStimuli/EngMiskad.wav,english,2,,,,,,,,,0,235,235,119,,,None,None,right,1,0.867305621272,None,,,2016_Mar_07_1500,60.048976318,mismatchTask,001,ROT4pre,
RAF,122,match,186,11,left,mismatchStimuli/EngMatchraaf.wav,english,2,,,,,,,,,0,236,236,92,,,None,None,left,1,0.801207835088,None,,,2016_Mar_07_1500,60.048976318,mismatchTask,001,ROT4pre,
НОВ,233,mis,116,22,right,mismatchStimuli/AmbRusMisrav.wav,ambiguous,2,,,,,,,,,0,237,237,57,,,None,None,right,1,1.03462102008,None,,,2016_Mar_07_1500,60.048976318,mismatchTask,001,ROT4pre,
ЦОГ,111,match,394,21,left,mismatchStimuli/RusMatchtsog.wav,russian,2,,,,,,,,,0,238,238,196,,,None,None,right,0,0.867212243611,None,,,2016_Mar_07_1500,60.048976318,mismatchTask,001,ROT4pre,
HAP,233,mis,26,12,right,mismatchStimuli/AmbEngMishak.wav,ambiguous,2,,,,,,,,,0,239,239,12,,,None,None,right,1,0.93409518525,None,,,2016_Mar_07_1500,60.048976318,mismatchTask,001,ROT4pre,
KAD,142,match,317,11,left,mismatchStimuli/EngMatchkaad.wav,english,2,,,,,,,,,0,240,240,158,,,None,None,left,1,0.909151093336,None,,,2016_Mar_07_1500,60.048976318,mismatchTask,001,ROT4pre,
GAK,124,match,282,11,left,mismatchStimuli/EngMatchgaak.wav,english,2,,,,,,,,,0,241,241,140,,,None,None,left,1,0.833987350343,None,,,2016_Mar_07_1500,60.048976318,mismatchTask,001,ROT4pre,
РОK,234,mis,98,12,right,mismatchStimuli/AmbEngMispobe.wav,ambiguous,2,,,,,,,,,0,242,242,48,,,None,None,right,1,0.817556770518,None,,,2016_Mar_07_1500,60.048976318,mismatchTask,001,ROT4pre,
KОЛ,141,mis,495,22,right,mismatchStimuli/RusMisshal.wav,russian,2,,,,,,,,,0,243,243,247,,,None,None,right,1,1.31789452303,None,,,2016_Mar_07_1500,60.048976318,mismatchTask,001,ROT4pre,
KOB,243,match,167,21,left,mismatchStimuli/AmbRusMatchkov.wav,ambiguous,2,,,,,,,,,0,244,244,83,,,None,None,right,0,0.81766628148,None,,,2016_Mar_07_1500,60.048976318,mismatchTask,001,ROT4pre,
PAK,234,match,15,21,left,mismatchStimuli/AmbRusMatchrak.wav,ambiguous,2,,,,,,,,,0,245,245,7,,,None,None,right,0,1.08427942661,None,,,2016_Mar_07_1500,60.048976318,mismatchTask,001,ROT4pre,
ЦАЖ,111,match,386,21,left,mismatchStimuli/RusMatchtsazh.wav,russian,2,,,,,,,,,0,246,246,192,,,None,None,right,0,0.984329014085,None,,,2016_Mar_07_1500,60.048976318,mismatchTask,001,ROT4pre,
FOJ,122,match,258,11,left,mismatchStimuli/EngMatchfaj.wav,english,2,,,,,,,,,0,247,247,128,,,None,None,left,1,0.867730465718,None,,,2016_Mar_07_1500,60.048976318,mismatchTask,001,ROT4pre,
BOK,234,match,141,11,left,mismatchStimuli/AmbEngMatchbak.wav,ambiguous,2,,,,,,,,,0,248,248,70,,,None,None,left,1,0.8176276593,None,,,2016_Mar_07_1500,60.048976318,mismatchTask,001,ROT4pre,
JAR,122,match,210,11,left,mismatchStimuli/EngMatchjar.wav,english,2,,,,,,,,,0,249,249,104,,,None,None,left,1,0.667371062562,None,,,2016_Mar_07_1500,60.048976318,mismatchTask,001,ROT4pre,
BOK,234,match,143,21,left,mismatchStimuli/AmbRusMatchvok.wav,ambiguous,2,,,,,,,,,0,250,250,71,,,None,None,right,0,0.584353807382,None,,,2016_Mar_07_1500,60.048976318,mismatchTask,001,ROT4pre,
TOH,243,mis,164,22,right,mismatchStimuli/AmbRusMistat.wav,ambiguous,2,,,,,,,,,0,251,251,81,,,None,None,right,1,0.867095887894,None,,,2016_Mar_07_1500,60.048976318,mismatchTask,001,ROT4pre,
LAM,124,mis,303,12,right,mismatchStimuli/EngMisgam.wav,english,2,,,,,,,,,0,252,252,151,,,None,None,right,1,0.65098741604,None,,,2016_Mar_07_1500,60.048976318,mismatchTask,001,ROT4pre,
WOG,122,match,221,11,left,mismatchStimuli/EngMatchwag.wav,english,2,,,,,,,,,0,253,253,110,,,None,None,left,1,0.650973727228,None,,,2016_Mar_07_1500,60.048976318,mismatchTask,001,ROT4pre,
НОР,233,match,111,21,left,mismatchStimuli/AmbRusMatchnor.wav,ambiguous,2,,,,,,,,,0,254,254,55,,,None,None,right,0,0.784122632816,None,,,2016_Mar_07_1500,60.048976318,mismatchTask,001,ROT4pre,
JOT,124,match,197,11,left,mismatchStimuli/EngMatchjat.wav,english,2,,,,,,,,,0,255,255,98,,,None,None,left,1,0.768030853011,None,,,2016_Mar_07_1500,60.048976318,mismatchTask,001,ROT4pre,
WOR,122,mis,220,12,right,mismatchStimuli/EngMiswaf.wav,english,2,,,,,,,,,0,256,256,109,,,None,None,right,1,0.767609919654,None,,,2016_Mar_07_1500,60.048976318,mismatchTask,001,ROT4pre,
PAM,234,mis,18,12,right,mismatchStimuli/AmbEngMistam.wav,ambiguous,2,,,,,,,,,0,257,257,8,,,None,None,right,1,0.567099938635,None,,,2016_Mar_07_1500,60.048976318,mismatchTask,001,ROT4pre,
LAM,124,match,301,11,left,mismatchStimuli/EngMatchlaam.wav,english,2,,,,,,,,,0,258,258,150,,,None,None,left,1,0.784466810757,None,,,2016_Mar_07_1500,60.048976318,mismatchTask,001,ROT4pre,
LOK,124,mis,292,12,right,mismatchStimuli/EngMislode.wav,english,2,,,,,,,,,0,259,259,145,,,None,None,right,1,1.06780386902,None,,,2016_Mar_07_1500,60.048976318,mismatchTask,001,ROT4pre,
HOM,234,mis,124,22,right,mismatchStimuli/AmbRusMisnat.wav,ambiguous,2,,,,,,,,,0,260,260,61,,,None,None,right,1,0.667354440317,None,,,2016_Mar_07_1500,60.048976318,mismatchTask,001,ROT4pre,
