Date,Time,File,Subj,Cond,Block,Trial,Order,Resp,Name,Stim,RT,Correct,Started@,LoadTime,TotalInt,Stim 1,Time 1,Stim 2,Time 2,Stim 3,Time 3,Stim 4,Time 4,Stim 5,Time 5,Stim 6,Time 6,Stim 7,Time 7,Stim 8,Time 8,
2023-03-15,16:47,C:\Users\N400 BCI\Desktop\N400_BCI_Direct_RT_2022\N400-BCI-DRTscript-v1.csv,004,1,-1,1,2.01,252,MOUSE-L,"7_respond.bmp",1045,True,48845,44,507,"252",0,"+ <1>",1137,"178",0,"sailboat.bmp",271,"245",0,"sailboat.wav",1206,"253",0,"7_respond.bmp",1050,
2023-03-15,16:47,C:\Users\N400 BCI\Desktop\N400_BCI_Direct_RT_2022\N400-BCI-DRTscript-v1.csv,004,1,-1,2,3.01,-1,-1,-1,-1,-1,53530,31,506,"252",0,"+ <1>",1422,"32",0,"box.bmp",221,"245",0,"box.wav",1197,
2023-03-15,16:47,C:\Users\N400 BCI\Desktop\N400_BCI_Direct_RT_2022\N400-BCI-DRTscript-v1.csv,004,1,-1,3,4.01,253,MOUSE-R,"7_respond.bmp",1642,False,56876,37,508,"252",0,"+ <1>",1222,"161",0,"pitcher.bmp",288,"245",0,"pitcher.wav",1203,"253",0,"7_respond.bmp",1646,
2023-03-15,16:47,C:\Users\N400 BCI\Desktop\N400_BCI_Direct_RT_2022\N400-BCI-DRTscript-v1.csv,004,1,-1,4,5.01,252,MOUSE-L,"7_respond.bmp",1049,True,62257,36,506,"252",0,"+ <1>",1064,"14",0,"banana.bmp",331,"245",0,"banana.wav",1204,"253",0,"7_respond.bmp",1053,
2023-03-15,16:47,C:\Users\N400 BCI\Desktop\N400_BCI_Direct_RT_2022\N400-BCI-DRTscript-v1.csv,004,1,-1,5,6.01,253,MOUSE-R,"7_respond.bmp",620,True,66931,35,506,"252",0,"+ <1>",762,"187",0,"shoe.bmp",204,"246",0,"shoe_foil.wav",1204,"253",0,"7_respond.bmp",621,
2023-03-15,16:47,C:\Users\N400 BCI\Desktop\N400_BCI_Direct_RT_2022\N400-BCI-DRTscript-v1.csv,004,1,-1,6,7.01,-1,-1,-1,-1,-1,70743,32,507,"252",0,"+ <1>",1015,"125",0,"lettuce.bmp",239,"245",0,"lettuce.wav",1196,
2023-03-15,16:47,C:\Users\N400 BCI\Desktop\N400_BCI_Direct_RT_2022\N400-BCI-DRTscript-v1.csv,004,1,-1,7,8.01,-1,-1,-1,-1,-1,73700,31,507,"252",0,"+ <1>",1101,"7",0,"apple.bmp",240,"246",0,"apple_foil.wav",1195,
2023-03-15,16:47,C:\Users\N400 BCI\Desktop\N400_BCI_Direct_RT_2022\N400-BCI-DRTscript-v1.csv,004,1,-1,8,9.01,253,MOUSE-R,"7_respond.bmp",758,True,76743,36,507,"252",0,"+ <1>",840,"144",0,"onion.bmp",319,"246",0,"onion_foil.wav",1204,"253",0,"7_respond.bmp",760,
2023-03-15,16:47,C:\Users\N400 BCI\Desktop\N400_BCI_Direct_RT_2022\N400-BCI-DRTscript-v1.csv,004,1,-1,9,10.01,252,MOUSE-L,"7_respond.bmp",754,True,80888,37,507,"252",0,"+ <1>",889,"169",0,"raccoon.bmp",307,"245",0,"raccoon.wav",1203,"253",0,"7_respond.bmp",755,
2023-03-15,16:47,C:\Users\N400 BCI\Desktop\N400_BCI_Direct_RT_2022\N400-BCI-DRTscript-v1.csv,004,1,-1,10,11.01,-1,-1,-1,-1,-1,85063,32,507,"252",0,"+ <1>",1379,"143",0,"nut.bmp",343,"246",0,"nut_foil.wav",1197,
2023-03-15,16:47,C:\Users\N400 BCI\Desktop\N400_BCI_Direct_RT_2022\N400-BCI-DRTscript-v1.csv,004,1,-1,11,12.01,-1,-1,-1,-1,-1,88489,32,506,"252",0,"+ <1>",1168,"8",0,"arm.bmp",313,"245",0,"arm.wav",1200,
2023-03-15,16:47,C:\Users\N400 BCI\Desktop\N400_BCI_Direct_RT_2022\N400-BCI-DRTscript-v1.csv,004,1,-1,12,13.01,-1,-1,-1,-1,-1,91676,31,507,"252",0,"+ <1>",1216,"224",0,"truck.bmp",228,"246",0,"truck_foil.wav",1195,
2023-03-15,16:47,C:\Users\N400 BCI\Desktop\N400_BCI_Direct_RT_2022\N400-BCI-DRTscript-v1.csv,004,1,-1,13,14.01,-1,-1,-1,-1,-1,94822,30,507,"252",0,"+ <1>",986,"15",0,"barn.bmp",265,"245",0,"barn.wav",1199,
2023-03-15,16:47,C:\Users\N400 BCI\Desktop\N400_BCI_Direct_RT_2022\N400-BCI-DRTscript-v1.csv,004,1,-1,14,15.01,253,MOUSE-R,"7_respond.bmp",690,True,97779,37,507,"252",0,"+ <1>",1342,"165",0,"potato.bmp",265,"246",0,"potato_foil.wav",1204,"253",0,"7_respond.bmp",694,
2023-03-15,16:47,C:\Users\N400 BCI\Desktop\N400_BCI_Direct_RT_2022\N400-BCI-DRTscript-v1.csv,004,1,-1,15,16.01,-1,-1,-1,-1,-1,102306,31,507,"252",0,"+ <1>",1157,"208",0,"table.bmp",228,"246",0,"table_foil.wav",1199,
2023-03-15,16:47,C:\Users\N400 BCI\Desktop\N400_BCI_Direct_RT_2022\N400-BCI-DRTscript-v1.csv,004,1,-1,16,17.01,253,MOUSE-R,"7_respond.bmp",853,True,105397,38,507,"252",0,"+ <1>",1282,"67",0,"dog.bmp",337,"246",0,"dog_foil.wav",1203,"253",0,"7_respond.bmp",853,
2023-03-15,16:47,C:\Users\N400 BCI\Desktop\N400_BCI_Direct_RT_2022\N400-BCI-DRTscript-v1.csv,004,1,-2,1,19.01,-1,-1,-1,-1,-1,128464,32,507,"252",0,"+ <1>",1459,"70",0,"doorknob.bmp",204,"245",0,"doorknob.wav",1200,
2023-03-15,16:47,C:\Users\N400 BCI\Desktop\N400_BCI_Direct_RT_2022\N400-BCI-DRTscript-v1.csv,004,1,-2,2,20.01,-1,-1,-1,-1,-1,131834,32,507,"252",0,"+ <1>",1034,"81",0,"fish.bmp",332,"246",0,"fish_foil.wav",1200,
2023-03-15,16:47,C:\Users\N400 BCI\Desktop\N400_BCI_Direct_RT_2022\N400-BCI-DRTscript-v1.csv,004,1,-2,3,21.01,-1,-1,-1,-1,-1,134907,31,506,"252",0,"+ <1>",1033,"223",0,"tree.bmp",301,"246",0,"tree_foil.wav",1196,
2023-03-15,16:47,C:\Users\N400 BCI\Desktop\N400_BCI_Direct_RT_2022\N400-BCI-DRTscript-v1.csv,004,1,-2,4,22.01,253,MOUSE-R,"7_respond.bmp",704,True,137943,39,506,"252",0,"+ <1>",761,"150",0,"peach.bmp",349,"246",0,"peach_foil.wav",1204,"253",0,"7_respond.bmp",708,
2023-03-15,16:47,C:\Users\N400 BCI\Desktop\N400_BCI_Direct_RT_2022\N400-BCI-DRTscript-v1.csv,004,1,-2,5,23.01,-1,-1,-1,-1,-1,141985,31,507,"252",0,"+ <1>",1040,"170",0,"recordplayer.bmp",228,"245",0,"recordplayer.wav",1195,
2023-03-15,16:47,C:\Users\N400 BCI\Desktop\N400_BCI_Direct_RT_2022\N400-BCI-DRTscript-v1.csv,004,1,-2,6,24.01,252,MOUSE-L,"7_respond.bmp",720,True,144955,38,506,"252",0,"+ <1>",1476,"75",0,"ear.bmp",246,"245",0,"ear.wav",1204,"253",0,"7_respond.bmp",726,
2023-03-15,16:47,C:\Users\N400 BCI\Desktop\N400_BCI_Direct_RT_2022\N400-BCI-DRTscript-v1.csv,004,1,-2,7,25.01,-1,-1,-1,-1,-1,149628,31,507,"252",0,"+ <1>",1490,"114",0,"kangaroo.bmp",277,"245",0,"kangaroo.wav",1199,
2023-03-15,16:47,C:\Users\N400 BCI\Desktop\N400_BCI_Direct_RT_2022\N400-BCI-DRTscript-v1.csv,004,1,-2,8,26.01,-1,-1,-1,-1,-1,153101,31,507,"252",0,"+ <1>",1015,"219",0,"toothbrush.bmp",246,"246",0,"toothbrush_foil.wav",1195,
2023-03-15,16:47,C:\Users\N400 BCI\Desktop\N400_BCI_Direct_RT_2022\N400-BCI-DRTscript-v1.csv,004,1,-2,9,27.01,253,MOUSE-R,"7_respond.bmp",1293,True,156064,37,507,"252",0,"+ <1>",755,"17",0,"baseballbat.bmp",260,"246",0,"baseballbat_foil.wav",1204,"253",0,"7_respond.bmp",1299,
2023-03-15,16:47,C:\Users\N400 BCI\Desktop\N400_BCI_Direct_RT_2022\N400-BCI-DRTscript-v1.csv,004,1,-2,10,28.01,-1,-1,-1,-1,-1,160604,31,507,"252",0,"+ <1>",1452,"196",0,"spinningwheel.bmp",259,"246",0,"spinningwheel_foil.wav",1200,
2023-03-15,16:47,C:\Users\N400 BCI\Desktop\N400_BCI_Direct_RT_2022\N400-BCI-DRTscript-v1.csv,004,1,-2,11,29.01,253,MOUSE-R,"7_respond.bmp",552,True,164022,36,506,"252",0,"+ <1>",1101,"231",0,"wagon.bmp",283,"246",0,"wagon_foil.wav",1203,"253",0,"7_respond.bmp",555,
2023-03-15,16:47,C:\Users\N400 BCI\Desktop\N400_BCI_Direct_RT_2022\N400-BCI-DRTscript-v1.csv,004,1,-2,12,30.01,252,MOUSE-L,"7_respond.bmp",932,True,168186,37,508,"252",0,"+ <1>",1446,"166",0,"pumpkin.bmp",295,"245",0,"pumpkin.wav",1204,"253",0,"7_respond.bmp",934,
2023-03-15,16:47,C:\Users\N400 BCI\Desktop\N400_BCI_Direct_RT_2022\N400-BCI-DRTscript-v1.csv,004,1,-2,13,31.01,253,MOUSE-R,"7_respond.bmp",726,True,173089,36,506,"252",0,"+ <1>",943,"37",0,"bus.bmp",336,"246",0,"bus_foil.wav",1204,"253",0,"7_respond.bmp",726,
2023-03-15,16:47,C:\Users\N400 BCI\Desktop\N400_BCI_Direct_RT_2022\N400-BCI-DRTscript-v1.csv,004,1,-2,14,32.01,-1,-1,-1,-1,-1,177319,32,507,"252",0,"+ <1>",775,"40",0,"cake.bmp",228,"245",0,"cake.wav",1199,
2023-03-15,16:47,C:\Users\N400 BCI\Desktop\N400_BCI_Direct_RT_2022\N400-BCI-DRTscript-v1.csv,004,1,-2,15,33.01,252,MOUSE-L,"7_respond.bmp",888,True,180028,37,507,"252",0,"+ <1>",859,"194",0,"socks.bmp",350,"245",0,"socks.wav",1203,"253",0,"7_respond.bmp",894,
2023-03-15,16:47,C:\Users\N400 BCI\Desktop\N400_BCI_Direct_RT_2022\N400-BCI-DRTscript-v1.csv,004,1,-2,16,34.01,252,MOUSE-L,"7_respond.bmp",892,True,184355,37,506,"252",0,"+ <1>",1222,"133",0,"monkey.bmp",216,"245",0,"monkey.wav",1204,"253",0,"7_respond.bmp",895,
2023-03-15,16:47,C:\Users\N400 BCI\Desktop\N400_BCI_Direct_RT_2022\N400-BCI-DRTscript-v1.csv,004,1,-3,1,36.01,253,MOUSE-R,"7_respond.bmp",800,True,205986,38,507,"252",0,"+ <1>",1052,"239",0,"wineglass.bmp",222,"246",0,"wineglass_foil.wav",1204,"253",0,"7_respond.bmp",803,
2023-03-15,16:47,C:\Users\N400 BCI\Desktop\N400_BCI_Direct_RT_2022\N400-BCI-DRTscript-v1.csv,004,1,-3,2,37.01,252,MOUSE-L,"7_respond.bmp",833,True,210289,37,507,"252",0,"+ <1>",1265,"110",0,"horse.bmp",289,"245",0,"horse.wav",1204,"253",0,"7_respond.bmp",838,
2023-03-15,16:47,C:\Users\N400 BCI\Desktop\N400_BCI_Direct_RT_2022\N400-BCI-DRTscript-v1.csv,004,1,-3,3,38.01,-1,-1,-1,-1,-1,214907,31,508,"252",0,"+ <1>",1077,"209",0,"telephone.bmp",203,"246",0,"telephone_foil.wav",1200,
2023-03-15,16:47,C:\Users\N400 BCI\Desktop\N400_BCI_Direct_RT_2022\N400-BCI-DRTscript-v1.csv,004,1,-3,4,39.01,-1,-1,-1,-1,-1,217895,31,506,"252",0,"+ <1>",1205,"76",0,"elephant.bmp",265,"246",0,"elephant_foil.wav",1200,
2023-03-15,16:47,C:\Users\N400 BCI\Desktop\N400_BCI_Direct_RT_2022\N400-BCI-DRTscript-v1.csv,004,1,-3,5,40.01,253,MOUSE-R,"7_respond.bmp",486,True,221071,36,507,"252",0,"+ <1>",883,"108",0,"harp.bmp",252,"246",0,"harp_foil.wav",1204,"253",0,"7_respond.bmp",487,
2023-03-15,16:47,C:\Users\N400 BCI\Desktop\N400_BCI_Direct_RT_2022\N400-BCI-DRTscript-v1.csv,004,1,-3,6,41.01,252,MOUSE-L,"7_respond.bmp",542,True,224919,37,507,"252",0,"+ <1>",1204,"210",0,"television.bmp",307,"245",0,"television.wav",1204,"253",0,"7_respond.bmp",542,
2023-03-15,16:47,C:\Users\N400 BCI\Desktop\N400_BCI_Direct_RT_2022\N400-BCI-DRTscript-v1.csv,004,1,-3,7,42.01,-1,-1,-1,-1,-1,229198,31,507,"252",0,"+ <1>",1204,"211",0,"tennisracket.bmp",277,"245",0,"tennisracket.wav",1200,
2023-03-15,16:47,C:\Users\N400 BCI\Desktop\N400_BCI_Direct_RT_2022\N400-BCI-DRTscript-v1.csv,004,1,-3,8,43.01,253,MOUSE-R,"7_respond.bmp",516,True,232386,37,506,"252",0,"+ <1>",1489,"188",0,"skirt.bmp",277,"246",0,"skirt_foil.wav",1205,"253",0,"7_respond.bmp",517,
2023-03-15,16:47,C:\Users\N400 BCI\Desktop\N400_BCI_Direct_RT_2022\N400-BCI-DRTscript-v1.csv,004,1,-3,9,44.01,-1,-1,-1,-1,-1,236895,32,507,"252",0,"+ <1>",1427,"214",0,"tie.bmp",234,"245",0,"tie.wav",1196,
2023-03-15,16:47,C:\Users\N400 BCI\Desktop\N400_BCI_Direct_RT_2022\N400-BCI-DRTscript-v1.csv,004,1,-3,10,45.01,252,MOUSE-L,"7_respond.bmp",925,True,240259,38,507,"252",0,"+ <1>",1362,"23",0,"belt.bmp",258,"245",0,"belt.wav",1204,"253",0,"7_respond.bmp",930,
2023-03-15,16:47,C:\Users\N400 BCI\Desktop\N400_BCI_Direct_RT_2022\N400-BCI-DRTscript-v1.csv,004,1,-3,11,46.01,-1,-1,-1,-1,-1,245035,31,507,"252",0,"+ <1>",973,"13",0,"balloon.bmp",265,"245",0,"balloon.wav",1195,
2023-03-15,16:47,C:\Users\N400 BCI\Desktop\N400_BCI_Direct_RT_2022\N400-BCI-DRTscript-v1.csv,004,1,-3,12,47.01,253,MOUSE-R,"7_respond.bmp",930,True,247975,37,506,"252",0,"+ <1>",894,"186",0,"shirt.bmp",318,"246",0,"shirt_foil.wav",1204,"253",0,"7_respond.bmp",932,
2023-03-15,16:47,C:\Users\N400 BCI\Desktop\N400_BCI_Direct_RT_2022\N400-BCI-DRTscript-v1.csv,004,1,-3,13,48.01,-1,-1,-1,-1,-1,252344,31,506,"252",0,"+ <1>",985,"30",0,"bow.bmp",301,"245",0,"bow.wav",1196,
2023-03-15,16:47,C:\Users\N400 BCI\Desktop\N400_BCI_Direct_RT_2022\N400-BCI-DRTscript-v1.csv,004,1,-3,14,49.01,-1,-1,-1,-1,-1,255332,32,507,"252",0,"+ <1>",980,"157",0,"pepper.bmp",324,"246",0,"pepper_foil.wav",1195,
2023-03-15,16:47,C:\Users\N400 BCI\Desktop\N400_BCI_Direct_RT_2022\N400-BCI-DRTscript-v1.csv,004,1,-3,15,50.01,-1,-1,-1,-1,-1,258338,32,507,"252",0,"+ <1>",1148,"206",0,"sweater.bmp",300,"246",0,"sweater_foil.wav",1196,
2023-03-15,16:47,C:\Users\N400 BCI\Desktop\N400_BCI_Direct_RT_2022\N400-BCI-DRTscript-v1.csv,004,1,-3,16,51.01,252,MOUSE-L,"7_respond.bmp",490,True,261489,39,506,"252",0,"+ <1>",976,"18",0,"basket.bmp",331,"245",0,"basket.wav",1203,"253",0,"7_respond.bmp",494,
2023-03-15,16:47,C:\Users\N400 BCI\Desktop\N400_BCI_Direct_RT_2022\N400-BCI-DRTscript-v1.csv,004,1,-4,1,53.01,252,MOUSE-L,"7_respond.bmp",927,True,282374,38,507,"252",0,"+ <1>",1192,"151",0,"peacock.bmp",296,"245",0,"peacock.wav",1204,"253",0,"7_respond.bmp",929,
2023-03-15,16:47,C:\Users\N400 BCI\Desktop\N400_BCI_Direct_RT_2022\N400-BCI-DRTscript-v1.csv,004,1,-4,2,54.01,253,MOUSE-R,"7_respond.bmp",833,True,287018,36,507,"252",0,"+ <1>",1362,"139",0,"nailfile.bmp",239,"246",0,"nailfile_foil.wav",1204,"253",0,"7_respond.bmp",838,
2023-03-15,16:47,C:\Users\N400 BCI\Desktop\N400_BCI_Direct_RT_2022\N400-BCI-DRTscript-v1.csv,004,1,-4,3,55.01,-1,-1,-1,-1,-1,291684,31,507,"252",0,"+ <1>",1289,"94",0,"garbagecan.bmp",288,"245",0,"garbagecan.wav",1195,
2023-03-15,16:47,C:\Users\N400 BCI\Desktop\N400_BCI_Direct_RT_2022\N400-BCI-DRTscript-v1.csv,004,1,-4,4,56.01,-1,-1,-1,-1,-1,294963,30,506,"252",0,"+ <1>",1198,"171",0,"refrigerator.bmp",277,"245",0,"refrigerator.wav",1200,
2023-03-15,16:47,C:\Users\N400 BCI\Desktop\N400_BCI_Direct_RT_2022\N400-BCI-DRTscript-v1.csv,004,1,-4,5,57.01,253,MOUSE-R,"7_respond.bmp",1312,True,298144,37,507,"252",0,"+ <1>",1392,"159",0,"pig.bmp",330,"246",0,"pig_foil.wav",1205,"253",0,"7_respond.bmp",1318,
2023-03-15,16:47,C:\Users\N400 BCI\Desktop\N400_BCI_Direct_RT_2022\N400-BCI-DRTscript-v1.csv,004,1,-4,6,58.01,-1,-1,-1,-1,-1,303411,32,507,"252",0,"+ <1>",1348,"155",0,"pencil.bmp",216,"246",0,"pencil_foil.wav",1196,
2023-03-15,16:47,C:\Users\N400 BCI\Desktop\N400_BCI_Direct_RT_2022\N400-BCI-DRTscript-v1.csv,004,1,-4,7,59.01,252,MOUSE-L,"7_respond.bmp",701,True,306678,37,506,"252",0,"+ <1>",1452,"129",0,"lips.bmp",325,"245",0,"lips.wav",1205,"253",0,"7_respond.bmp",706,
2023-03-15,16:47,C:\Users\N400 BCI\Desktop\N400_BCI_Direct_RT_2022\N400-BCI-DRTscript-v1.csv,004,1,-4,8,60.01,253,MOUSE-R,"7_respond.bmp",948,True,311387,37,507,"252",0,"+ <1>",1180,"126",0,"lightbulb.bmp",313,"246",0,"lightbulb_foil.wav",1205,"253",0,"7_respond.bmp",953,
2023-03-15,16:47,C:\Users\N400 BCI\Desktop\N400_BCI_Direct_RT_2022\N400-BCI-DRTscript-v1.csv,004,1,-4,9,61.01,252,MOUSE-L,"7_respond.bmp",737,True,316059,37,507,"252",0,"+ <1>",1404,"192",0,"snake.bmp",300,"245",0,"snake.wav",1204,"253",0,"7_respond.bmp",737,
2023-03-15,16:47,C:\Users\N400 BCI\Desktop\N400_BCI_Direct_RT_2022\N400-BCI-DRTscript-v1.csv,004,1,-4,10,62.01,-1,-1,-1,-1,-1,320726,32,507,"252",0,"+ <1>",1112,"71",0,"dresser.bmp",277,"246",0,"dresser_foil.wav",1195,
2023-03-15,16:47,C:\Users\N400 BCI\Desktop\N400_BCI_Direct_RT_2022\N400-BCI-DRTscript-v1.csv,004,1,-4,11,63.01,-1,-1,-1,-1,-1,323817,33,507,"252",0,"+ <1>",1342,"136",0,"mouse.bmp",337,"245",0,"mouse.wav",1197,
2023-03-15,16:47,C:\Users\N400 BCI\Desktop\N400_BCI_Direct_RT_2022\N400-BCI-DRTscript-v1.csv,004,1,-4,12,64.01,253,MOUSE-R,"7_respond.bmp",799,True,327200,38,507,"252",0,"+ <1>",1192,"61",0,"coat.bmp",319,"246",0,"coat_foil.wav",1203,"253",0,"7_respond.bmp",803,
2023-03-15,16:47,C:\Users\N400 BCI\Desktop\N400_BCI_Direct_RT_2022\N400-BCI-DRTscript-v1.csv,004,1,-4,13,65.01,-1,-1,-1,-1,-1,331744,33,506,"252",0,"+ <1>",1477,"216",0,"toaster.bmp",252,"246",0,"toaster_foil.wav",1196,
2023-03-15,16:47,C:\Users\N400 BCI\Desktop\N400_BCI_Direct_RT_2022\N400-BCI-DRTscript-v1.csv,004,1,-4,14,66.01,-1,-1,-1,-1,-1,335175,31,507,"252",0,"+ <1>",1119,"90",0,"fox.bmp",295,"245",0,"fox.wav",1201,
2023-03-15,16:47,C:\Users\N400 BCI\Desktop\N400_BCI_Direct_RT_2022\N400-BCI-DRTscript-v1.csv,004,1,-4,15,67.01,252,MOUSE-L,"7_respond.bmp",752,True,338297,36,507,"252",0,"+ <1>",1306,"167",0,"purse.bmp",314,"245",0,"purse.wav",1204,"253",0,"7_respond.bmp",754,
2023-03-15,16:47,C:\Users\N400 BCI\Desktop\N400_BCI_Direct_RT_2022\N400-BCI-DRTscript-v1.csv,004,1,-4,16,68.01,-1,-1,-1,-1,-1,342897,29,507,"252",0,"+ <1>",780,"86",0,"foot.bmp",228,"246",0,"foot_foil.wav",1199,
2023-03-15,16:47,C:\Users\N400 BCI\Desktop\N400_BCI_Direct_RT_2022\N400-BCI-DRTscript-v1.csv,004,1,-5,1,70.01,-1,-1,-1,-1,-1,384490,32,507,"252",0,"+ <1>",756,"103",0,"gun.bmp",295,"245",0,"gun.wav",1195,
2023-03-15,16:47,C:\Users\N400 BCI\Desktop\N400_BCI_Direct_RT_2022\N400-BCI-DRTscript-v1.csv,004,1,-5,2,71.01,-1,-1,-1,-1,-1,387243,33,507,"252",0,"+ <1>",1041,"191",0,"snail.bmp",338,"245",0,"snail.wav",1198,
2023-03-15,16:47,C:\Users\N400 BCI\Desktop\N400_BCI_Direct_RT_2022\N400-BCI-DRTscript-v1.csv,004,1,-5,3,72.01,-1,-1,-1,-1,-1,390327,33,507,"252",0,"+ <1>",1501,"207",0,"swing.bmp",229,"246",0,"swing_foil.wav",1200,
2023-03-15,16:47,C:\Users\N400 BCI\Desktop\N400_BCI_Direct_RT_2022\N400-BCI-DRTscript-v1.csv,004,1,-5,4,73.01,253,MOUSE-R,"7_respond.bmp",1011,True,393764,36,507,"252",0,"+ <1>",1179,"39",0,"button.bmp",234,"246",0,"button_foil.wav",1205,"253",0,"7_respond.bmp",1014,
2023-03-15,16:47,C:\Users\N400 BCI\Desktop\N400_BCI_Direct_RT_2022\N400-BCI-DRTscript-v1.csv,004,1,-5,5,74.01,-1,-1,-1,-1,-1,398418,30,506,"252",0,"+ <1>",1398,"78",0,"eye.bmp",259,"245",0,"eye.wav",1195,
2023-03-15,16:47,C:\Users\N400 BCI\Desktop\N400_BCI_Direct_RT_2022\N400-BCI-DRTscript-v1.csv,004,1,-5,6,75.01,-1,-1,-1,-1,-1,401776,31,507,"252",0,"+ <1>",1295,"215",0,"tiger.bmp",234,"246",0,"tiger_foil.wav",1200,
2023-03-15,16:47,C:\Users\N400 BCI\Desktop\N400_BCI_Direct_RT_2022\N400-BCI-DRTscript-v1.csv,004,1,-5,7,76.01,253,MOUSE-R,"7_respond.bmp",895,True,405012,39,507,"252",0,"+ <1>",955,"240",0,"wrench.bmp",271,"246",0,"wrench_foil.wav",1203,"253",0,"7_respond.bmp",900,
2023-03-15,16:47,C:\Users\N400 BCI\Desktop\N400_BCI_Direct_RT_2022\N400-BCI-DRTscript-v1.csv,004,1,-5,8,77.01,252,MOUSE-L,"7_respond.bmp",674,True,409364,36,507,"252",0,"+ <1>",859,"106",0,"hand.bmp",332,"245",0,"hand.wav",1203,"253",0,"7_respond.bmp",674,
2023-03-15,16:47,C:\Users\N400 BCI\Desktop\N400_BCI_Direct_RT_2022\N400-BCI-DRTscript-v1.csv,004,1,-5,9,78.01,252,MOUSE-L,"7_respond.bmp",795,True,413455,38,506,"252",0,"+ <1>",1119,"156",0,"penguin.bmp",276,"245",0,"penguin.wav",1204,"253",0,"7_respond.bmp",798,
2023-03-15,16:47,C:\Users\N400 BCI\Desktop\N400_BCI_Direct_RT_2022\N400-BCI-DRTscript-v1.csv,004,1,-5,10,79.01,252,MOUSE-L,"7_respond.bmp",481,True,417873,36,507,"252",0,"+ <1>",1119,"202",0,"strawberry.bmp",228,"245",0,"strawberry.wav",1203,"253",0,"7_respond.bmp",482,
2023-03-15,16:47,C:\Users\N400 BCI\Desktop\N400_BCI_Direct_RT_2022\N400-BCI-DRTscript-v1.csv,004,1,-5,11,80.01,253,MOUSE-R,"7_respond.bmp",515,True,421928,35,506,"252",0,"+ <1>",1495,"83",0,"flower.bmp",227,"246",0,"flower_foil.wav",1204,"253",0,"7_respond.bmp",518,
2023-03-15,16:47,C:\Users\N400 BCI\Desktop\N400_BCI_Direct_RT_2022\N400-BCI-DRTscript-v1.csv,004,1,-5,12,81.01,-1,-1,-1,-1,-1,426394,32,507,"252",0,"+ <1>",864,"97",0,"glasses.bmp",252,"246",0,"glasses_foil.wav",1195,
2023-03-15,16:47,C:\Users\N400 BCI\Desktop\N400_BCI_Direct_RT_2022\N400-BCI-DRTscript-v1.csv,004,1,-5,13,82.01,-1,-1,-1,-1,-1,429212,32,507,"252",0,"+ <1>",1170,"203",0,"suitcase.bmp",343,"246",0,"suitcase_foil.wav",1198,
2023-03-15,16:47,C:\Users\N400 BCI\Desktop\N400_BCI_Direct_RT_2022\N400-BCI-DRTscript-v1.csv,004,1,-5,14,83.01,253,MOUSE-R,"7_respond.bmp",683,True,432430,36,507,"252",0,"+ <1>",878,"241",0,"zebra.bmp",246,"246",0,"zebra_foil.wav",1203,"253",0,"7_respond.bmp",688,
2023-03-15,16:47,C:\Users\N400 BCI\Desktop\N400_BCI_Direct_RT_2022\N400-BCI-DRTscript-v1.csv,004,1,-5,15,84.01,252,MOUSE-L,"7_respond.bmp",559,True,436466,37,507,"252",0,"+ <1>",979,"113",0,"jacket.bmp",271,"245",0,"jacket.wav",1205,"253",0,"7_respond.bmp",560,
2023-03-15,16:47,C:\Users\N400 BCI\Desktop\N400_BCI_Direct_RT_2022\N400-BCI-DRTscript-v1.csv,004,1,-5,16,85.01,-1,-1,-1,-1,-1,440503,31,507,"252",0,"+ <1>",889,"69",0,"donkey.bmp",222,"245",0,"donkey.wav",1195,
2023-03-15,16:47,C:\Users\N400 BCI\Desktop\N400_BCI_Direct_RT_2022\N400-BCI-DRTscript-v1.csv,004,1,-6,1,87.01,253,MOUSE-R,"7_respond.bmp",729,True,460431,37,509,"252",0,"+ <1>",942,"116",0,"key.bmp",277,"246",0,"key_foil.wav",1203,"253",0,"7_respond.bmp",736,
2023-03-15,16:47,C:\Users\N400 BCI\Desktop\N400_BCI_Direct_RT_2022\N400-BCI-DRTscript-v1.csv,004,1,-6,2,88.01,-1,-1,-1,-1,-1,464613,31,509,"252",0,"+ <1>",1156,"122",0,"leg.bmp",252,"245",0,"leg.wav",1198,
2023-03-15,16:47,C:\Users\N400 BCI\Desktop\N400_BCI_Direct_RT_2022\N400-BCI-DRTscript-v1.csv,004,1,-6,3,89.01,-1,-1,-1,-1,-1,467728,31,508,"252",0,"+ <1>",913,"212",0,"thimble.bmp",313,"245",0,"thimble.wav",1199,
2023-03-15,16:47,C:\Users\N400 BCI\Desktop\N400_BCI_Direct_RT_2022\N400-BCI-DRTscript-v1.csv,004,1,-6,4,90.01,-1,-1,-1,-1,-1,470661,31,507,"252",0,"+ <1>",1277,"177",0,"ruler.bmp",325,"246",0,"ruler_foil.wav",1200,
2023-03-15,16:47,C:\Users\N400 BCI\Desktop\N400_BCI_Direct_RT_2022\N400-BCI-DRTscript-v1.csv,004,1,-6,5,91.01,-1,-1,-1,-1,-1,473970,32,506,"252",0,"+ <1>",1464,"88",0,"footballhelmet.bmp",324,"246",0,"footballhelmet_foil.wav",1197,
2023-03-15,16:47,C:\Users\N400 BCI\Desktop\N400_BCI_Direct_RT_2022\N400-BCI-DRTscript-v1.csv,004,1,-6,6,92.01,252,MOUSE-L,"7_respond.bmp",359,True,477461,37,507,"252",0,"+ <1>",1495,"189",0,"skunk.bmp",258,"245",0,"skunk.wav",1203,"253",0,"7_respond.bmp",361,
2023-03-15,16:47,C:\Users\N400 BCI\Desktop\N400_BCI_Direct_RT_2022\N400-BCI-DRTscript-v1.csv,004,1,-6,7,93.01,252,MOUSE-L,"7_respond.bmp",1035,True,481801,36,508,"252",0,"+ <1>",1052,"101",0,"grasshopper.bmp",349,"245",0,"grasshopper.wav",1203,"253",0,"7_respond.bmp",1039,
2023-03-15,16:47,C:\Users\N400 BCI\Desktop\N400_BCI_Direct_RT_2022\N400-BCI-DRTscript-v1.csv,004,1,-6,8,94.01,252,MOUSE-L,"7_respond.bmp",344,True,486467,36,507,"252",0,"+ <1>",1029,"130",0,"lobster.bmp",277,"245",0,"lobster.wav",1204,"253",0,"7_respond.bmp",347,
2023-03-15,16:47,C:\Users\N400 BCI\Desktop\N400_BCI_Direct_RT_2022\N400-BCI-DRTscript-v1.csv,004,1,-6,9,95.01,-1,-1,-1,-1,-1,490346,32,507,"252",0,"+ <1>",1246,"128",0,"lion.bmp",318,"246",0,"lion_foil.wav",1196,
2023-03-15,16:47,C:\Users\N400 BCI\Desktop\N400_BCI_Direct_RT_2022\N400-BCI-DRTscript-v1.csv,004,1,-6,10,96.01,-1,-1,-1,-1,-1,493613,31,507,"252",0,"+ <1>",762,"98",0,"gloves.bmp",342,"246",0,"gloves_foil.wav",1201,
2023-03-15,16:47,C:\Users\N400 BCI\Desktop\N400_BCI_Direct_RT_2022\N400-BCI-DRTscript-v1.csv,004,1,-6,11,97.01,253,MOUSE-R,"7_respond.bmp",646,True,496425,39,506,"252",0,"+ <1>",997,"112",0,"iron.bmp",282,"246",0,"iron_foil.wav",1204,"253",0,"7_respond.bmp",648,
2023-03-15,16:47,C:\Users\N400 BCI\Desktop\N400_BCI_Direct_RT_2022\N400-BCI-DRTscript-v1.csv,004,1,-6,12,98.01,253,MOUSE-R,"7_respond.bmp",588,True,500583,35,507,"252",0,"+ <1>",864,"230",0,"violin.bmp",337,"246",0,"violin_foil.wav",1204,"253",0,"7_respond.bmp",590,
2023-03-15,16:47,C:\Users\N400 BCI\Desktop\N400_BCI_Direct_RT_2022\N400-BCI-DRTscript-v1.csv,004,1,-6,13,99.01,253,MOUSE-R,"7_respond.bmp",638,True,504600,37,506,"252",0,"+ <1>",1355,"12",0,"ball.bmp",300,"246",0,"ball_foil.wav",1204,"253",0,"7_respond.bmp",642,
2023-03-15,16:47,C:\Users\N400 BCI\Desktop\N400_BCI_Direct_RT_2022\N400-BCI-DRTscript-v1.csv,004,1,-6,14,100.01,-1,-1,-1,-1,-1,509122,31,506,"252",0,"+ <1>",755,"93",0,"fryingpan.bmp",349,"245",0,"fryingpan.wav",1196,
2023-03-15,16:47,C:\Users\N400 BCI\Desktop\N400_BCI_Direct_RT_2022\N400-BCI-DRTscript-v1.csv,004,1,-6,15,101.01,252,MOUSE-L,"7_respond.bmp",421,True,511928,37,506,"252",0,"+ <1>",1433,"100",0,"grapes.bmp",295,"245",0,"grapes.wav",1204,"253",0,"7_respond.bmp",422,
2023-03-15,16:47,C:\Users\N400 BCI\Desktop\N400_BCI_Direct_RT_2022\N400-BCI-DRTscript-v1.csv,004,1,-6,16,102.01,-1,-1,-1,-1,-1,516304,31,507,"252",0,"+ <1>",895,"56",0,"cigarette.bmp",289,"245",0,"cigarette.wav",1200,
2023-03-15,16:47,C:\Users\N400 BCI\Desktop\N400_BCI_Direct_RT_2022\N400-BCI-DRTscript-v1.csv,004,1,-7,1,104.01,252,MOUSE-L,"7_respond.bmp",720,True,536080,36,507,"252",0,"+ <1>",762,"5",0,"anchor.bmp",330,"245",0,"anchor.wav",1204,"253",0,"7_respond.bmp",724,
2023-03-15,16:47,C:\Users\N400 BCI\Desktop\N400_BCI_Direct_RT_2022\N400-BCI-DRTscript-v1.csv,004,1,-7,2,105.01,-1,-1,-1,-1,-1,540122,31,508,"252",0,"+ <1>",1312,"140",0,"necklace.bmp",265,"245",0,"necklace.wav",1200,
2023-03-15,16:47,C:\Users\N400 BCI\Desktop\N400_BCI_Direct_RT_2022\N400-BCI-DRTscript-v1.csv,004,1,-7,3,106.01,252,MOUSE-L,"7_respond.bmp",592,True,543407,37,507,"252",0,"+ <1>",1496,"185",0,"seahorse.bmp",222,"245",0,"seahorse.wav",1204,"253",0,"7_respond.bmp",595,
2023-03-15,16:47,C:\Users\N400 BCI\Desktop\N400_BCI_Direct_RT_2022\N400-BCI-DRTscript-v1.csv,004,1,-7,4,107.01,253,MOUSE-R,"7_respond.bmp",624,True,547947,36,507,"252",0,"+ <1>",1332,"22",0,"bell.bmp",301,"246",0,"bell_foil.wav",1204,"253",0,"7_respond.bmp",625,
2023-03-15,16:47,C:\Users\N400 BCI\Desktop\N400_BCI_Direct_RT_2022\N400-BCI-DRTscript-v1.csv,004,1,-7,5,108.01,-1,-1,-1,-1,-1,552432,31,506,"252",0,"+ <1>",962,"99",0,"goat.bmp",246,"246",0,"goat_foil.wav",1195,
2023-03-15,16:47,C:\Users\N400 BCI\Desktop\N400_BCI_Direct_RT_2022\N400-BCI-DRTscript-v1.csv,004,1,-7,6,109.01,253,MOUSE-R,"7_respond.bmp",1011,True,555341,37,506,"252",0,"+ <1>",1289,"9",0,"asparagus.bmp",277,"246",0,"asparagus_foil.wav",1203,"253",0,"7_respond.bmp",1016,
2023-03-15,16:47,C:\Users\N400 BCI\Desktop\N400_BCI_Direct_RT_2022\N400-BCI-DRTscript-v1.csv,004,1,-7,7,110.01,-1,-1,-1,-1,-1,560146,32,507,"252",0,"+ <1>",1149,"183",0,"screw.bmp",270,"245",0,"screw.wav",1196,
2023-03-15,16:47,C:\Users\N400 BCI\Desktop\N400_BCI_Direct_RT_2022\N400-BCI-DRTscript-v1.csv,004,1,-7,8,111.01,-1,-1,-1,-1,-1,563268,30,506,"252",0,"+ <1>",797,"220",0,"top.bmp",240,"245",0,"top.wav",1196,
2023-03-15,16:47,C:\Users\N400 BCI\Desktop\N400_BCI_Direct_RT_2022\N400-BCI-DRTscript-v1.csv,004,1,-7,9,112.01,-1,-1,-1,-1,-1,566007,32,506,"252",0,"+ <1>",1052,"44",0,"car.bmp",284,"246",0,"car_foil.wav",1195,
2023-03-15,16:47,C:\Users\N400 BCI\Desktop\N400_BCI_Direct_RT_2022\N400-BCI-DRTscript-v1.csv,004,1,-7,10,113.01,-1,-1,-1,-1,-1,569044,33,506,"252",0,"+ <1>",1447,"19",0,"bear.bmp",246,"246",0,"bear_foil.wav",1195,
2023-03-15,16:47,C:\Users\N400 BCI\Desktop\N400_BCI_Direct_RT_2022\N400-BCI-DRTscript-v1.csv,004,1,-7,11,114.01,253,MOUSE-R,"7_respond.bmp",662,True,572438,36,508,"252",0,"+ <1>",1070,"158",0,"piano.bmp",337,"246",0,"piano_foil.wav",1204,"253",0,"7_respond.bmp",662,
2023-03-15,16:47,C:\Users\N400 BCI\Desktop\N400_BCI_Direct_RT_2022\N400-BCI-DRTscript-v1.csv,004,1,-7,12,115.01,253,MOUSE-R,"7_respond.bmp",755,True,576734,36,508,"252",0,"+ <1>",1150,"45",0,"carrot.bmp",252,"246",0,"carrot_foil.wav",1205,"253",0,"7_respond.bmp",758,
2023-03-15,16:47,C:\Users\N400 BCI\Desktop\N400_BCI_Direct_RT_2022\N400-BCI-DRTscript-v1.csv,004,1,-7,13,116.01,-1,-1,-1,-1,-1,581122,33,507,"252",0,"+ <1>",859,"42",0,"cannon.bmp",276,"245",0,"cannon.wav",1201,
2023-03-15,16:47,C:\Users\N400 BCI\Desktop\N400_BCI_Direct_RT_2022\N400-BCI-DRTscript-v1.csv,004,1,-7,14,117.01,252,MOUSE-L,"7_respond.bmp",475,True,583965,37,507,"252",0,"+ <1>",1279,"180",0,"sandwich.bmp",222,"245",0,"sandwich.wav",1204,"253",0,"7_respond.bmp",479,
2023-03-15,16:47,C:\Users\N400 BCI\Desktop\N400_BCI_Direct_RT_2022\N400-BCI-DRTscript-v1.csv,004,1,-7,15,118.01,-1,-1,-1,-1,-1,588171,31,507,"252",0,"+ <1>",1004,"141",0,"needle.bmp",350,"246",0,"needle_foil.wav",1200,
2023-03-15,16:47,C:\Users\N400 BCI\Desktop\N400_BCI_Direct_RT_2022\N400-BCI-DRTscript-v1.csv,004,1,-7,16,119.01,252,MOUSE-L,"7_respond.bmp",404,True,591232,37,507,"252",0,"+ <1>",1477,"41",0,"camel.bmp",277,"245",0,"camel.wav",1203,"253",0,"7_respond.bmp",409,
2023-03-15,16:47,C:\Users\N400 BCI\Desktop\N400_BCI_Direct_RT_2022\N400-BCI-DRTscript-v1.csv,004,1,-8,1,121.01,-1,-1,-1,-1,-1,611995,32,507,"252",0,"+ <1>",1399,"117",0,"kite.bmp",295,"246",0,"kite_foil.wav",1200,
2023-03-15,16:47,C:\Users\N400 BCI\Desktop\N400_BCI_Direct_RT_2022\N400-BCI-DRTscript-v1.csv,004,1,-8,2,122.01,252,MOUSE-L,"7_respond.bmp",670,True,615396,37,508,"252",0,"+ <1>",913,"3",0,"airplane.bmp",239,"245",0,"airplane.wav",1204,"253",0,"7_respond.bmp",675,
2023-03-15,16:47,C:\Users\N400 BCI\Desktop\N400_BCI_Direct_RT_2022\N400-BCI-DRTscript-v1.csv,004,1,-8,3,123.01,-1,-1,-1,-1,-1,619450,32,506,"252",0,"+ <1>",1252,"104",0,"hair.bmp",234,"246",0,"hair_foil.wav",1196,
2023-03-15,16:47,C:\Users\N400 BCI\Desktop\N400_BCI_Direct_RT_2022\N400-BCI-DRTscript-v1.csv,004,1,-8,4,124.01,-1,-1,-1,-1,-1,622638,32,507,"252",0,"+ <1>",1051,"25",0,"bird.bmp",296,"246",0,"bird_foil.wav",1201,
2023-03-15,16:47,C:\Users\N400 BCI\Desktop\N400_BCI_Direct_RT_2022\N400-BCI-DRTscript-v1.csv,004,1,-8,5,125.01,253,MOUSE-R,"7_respond.bmp",708,True,625693,35,507,"252",0,"+ <1>",1307,"11",0,"babycarriage.bmp",264,"246",0,"babycarriage_foil.wav",1204,"253",0,"7_respond.bmp",712,
2023-03-15,16:47,C:\Users\N400 BCI\Desktop\N400_BCI_Direct_RT_2022\N400-BCI-DRTscript-v1.csv,004,1,-8,6,126.01,253,MOUSE-R,"7_respond.bmp",842,True,630201,38,508,"252",0,"+ <1>",968,"16",0,"barrel.bmp",216,"246",0,"barrel_foil.wav",1205,"253",0,"7_respond.bmp",844,
2023-03-15,16:47,C:\Users\N400 BCI\Desktop\N400_BCI_Direct_RT_2022\N400-BCI-DRTscript-v1.csv,004,1,-8,7,127.01,252,MOUSE-L,"7_respond.bmp",531,True,634457,38,507,"252",0,"+ <1>",924,"62",0,"corn.bmp",282,"245",0,"corn.wav",1206,"253",0,"7_respond.bmp",535,
2023-03-15,16:47,C:\Users\N400 BCI\Desktop\N400_BCI_Direct_RT_2022\N400-BCI-DRTscript-v1.csv,004,1,-8,8,128.01,253,MOUSE-R,"7_respond.bmp",468,True,638426,36,506,"252",0,"+ <1>",948,"55",0,"cigar.bmp",307,"246",0,"cigar_foil.wav",1205,"253",0,"7_respond.bmp",470,
2023-03-15,16:47,C:\Users\N400 BCI\Desktop\N400_BCI_Direct_RT_2022\N400-BCI-DRTscript-v1.csv,004,1,-8,9,129.01,-1,-1,-1,-1,-1,642378,29,507,"252",0,"+ <1>",1124,"236",0,"whistle.bmp",319,"245",0,"whistle.wav",1195,
2023-03-15,16:47,C:\Users\N400 BCI\Desktop\N400_BCI_Direct_RT_2022\N400-BCI-DRTscript-v1.csv,004,1,-8,10,130.01,-1,-1,-1,-1,-1,645523,31,508,"252",0,"+ <1>",925,"77",0,"envelope.bmp",294,"245",0,"envelope.wav",1201,
2023-03-15,16:47,C:\Users\N400 BCI\Desktop\N400_BCI_Direct_RT_2022\N400-BCI-DRTscript-v1.csv,004,1,-8,11,131.01,253,MOUSE-R,"7_respond.bmp",399,True,648451,35,508,"252",0,"+ <1>",1095,"92",0,"frog.bmp",339,"246",0,"frog_foil.wav",1203,"253",0,"7_respond.bmp",399,
2023-03-15,16:47,C:\Users\N400 BCI\Desktop\N400_BCI_Direct_RT_2022\N400-BCI-DRTscript-v1.csv,004,1,-8,12,132.01,252,MOUSE-L,"7_respond.bmp",481,True,652511,37,506,"252",0,"+ <1>",828,"234",0,"well.bmp",209,"245",0,"well.wav",1205,"253",0,"7_respond.bmp",483,
2023-03-15,16:47,C:\Users\N400 BCI\Desktop\N400_BCI_Direct_RT_2022\N400-BCI-DRTscript-v1.csv,004,1,-8,13,133.01,252,MOUSE-L,"7_respond.bmp",519,True,656256,37,507,"252",0,"+ <1>",1203,"147",0,"owl.bmp",331,"245",0,"owl.wav",1203,"253",0,"7_respond.bmp",520,
2023-03-15,16:47,C:\Users\N400 BCI\Desktop\N400_BCI_Direct_RT_2022\N400-BCI-DRTscript-v1.csv,004,1,-8,14,134.01,-1,-1,-1,-1,-1,660535,31,507,"252",0,"+ <1>",1046,"153",0,"pear.bmp",343,"246",0,"pear_foil.wav",1196,
2023-03-15,16:47,C:\Users\N400 BCI\Desktop\N400_BCI_Direct_RT_2022\N400-BCI-DRTscript-v1.csv,004,1,-8,15,135.01,-1,-1,-1,-1,-1,663627,31,507,"252",0,"+ <1>",1324,"46",0,"cat.bmp",204,"245",0,"cat.wav",1195,
2023-03-15,16:47,C:\Users\N400 BCI\Desktop\N400_BCI_Direct_RT_2022\N400-BCI-DRTscript-v1.csv,004,1,-8,16,136.01,-1,-1,-1,-1,-1,666857,31,507,"252",0,"+ <1>",1035,"179",0,"salt.bmp",260,"245",0,"salt.wav",1198,
2023-03-15,16:47,C:\Users\N400 BCI\Desktop\N400_BCI_Direct_RT_2022\N400-BCI-DRTscript-v1.csv,004,1,-9,1,138.01,253,MOUSE-R,"7_respond.bmp",757,True,697856,38,506,"252",0,"+ <1>",1131,"34",0,"broom.bmp",295,"246",0,"broom_foil.wav",1203,"253",0,"7_respond.bmp",757,
2023-03-15,16:47,C:\Users\N400 BCI\Desktop\N400_BCI_Direct_RT_2022\N400-BCI-DRTscript-v1.csv,004,1,-9,2,139.01,-1,-1,-1,-1,-1,702263,31,507,"252",0,"+ <1>",1100,"173",0,"rockingchair.bmp",203,"245",0,"rockingchair.wav",1196,
2023-03-15,16:47,C:\Users\N400 BCI\Desktop\N400_BCI_Direct_RT_2022\N400-BCI-DRTscript-v1.csv,004,1,-9,3,140.01,253,MOUSE-R,"7_respond.bmp",690,True,705269,38,506,"252",0,"+ <1>",1210,"35",0,"brush.bmp",302,"246",0,"brush_foil.wav",1203,"253",0,"7_respond.bmp",695,
2023-03-15,16:47,C:\Users\N400 BCI\Desktop\N400_BCI_Direct_RT_2022\N400-BCI-DRTscript-v1.csv,004,1,-9,4,141.01,253,MOUSE-R,"7_respond.bmp",1215,True,709699,37,508,"252",0,"+ <1>",1477,"111",0,"house.bmp",325,"246",0,"house_foil.wav",1204,"253",0,"7_respond.bmp",1220,
2023-03-15,16:47,C:\Users\N400 BCI\Desktop\N400_BCI_Direct_RT_2022\N400-BCI-DRTscript-v1.csv,004,1,-9,5,142.01,252,MOUSE-L,"7_respond.bmp",475,True,714948,36,507,"252",0,"+ <1>",1155,"213",0,"thumb.bmp",283,"245",0,"thumb.wav",1203,"253",0,"7_respond.bmp",476,
2023-03-15,16:47,C:\Users\N400 BCI\Desktop\N400_BCI_Direct_RT_2022\N400-BCI-DRTscript-v1.csv,004,1,-9,6,143.01,-1,-1,-1,-1,-1,719088,30,507,"252",0,"+ <1>",1386,"142",0,"nose.bmp",295,"245",0,"nose.wav",1199,
2023-03-15,16:47,C:\Users\N400 BCI\Desktop\N400_BCI_Direct_RT_2022\N400-BCI-DRTscript-v1.csv,004,1,-9,7,144.01,-1,-1,-1,-1,-1,722475,33,506,"252",0,"+ <1>",1330,"174",0,"rollerskate.bmp",330,"246",0,"rollerskate_foil.wav",1198,
2023-03-15,16:47,C:\Users\N400 BCI\Desktop\N400_BCI_Direct_RT_2022\N400-BCI-DRTscript-v1.csv,004,1,-9,8,145.01,-1,-1,-1,-1,-1,725839,31,507,"252",0,"+ <1>",1251,"226",0,"turtle.bmp",350,"246",0,"turtle_foil.wav",1195,
2023-03-15,16:47,C:\Users\N400 BCI\Desktop\N400_BCI_Direct_RT_2022\N400-BCI-DRTscript-v1.csv,004,1,-9,9,146.01,252,MOUSE-L,"7_respond.bmp",569,True,729142,38,507,"252",0,"+ <1>",1235,"137",0,"mushroom.bmp",252,"245",0,"mushroom.wav",1203,"253",0,"7_respond.bmp",573,
2023-03-15,16:47,C:\Users\N400 BCI\Desktop\N400_BCI_Direct_RT_2022\N400-BCI-DRTscript-v1.csv,004,1,-9,10,147.01,252,MOUSE-L,"7_respond.bmp",463,True,733426,37,507,"252",0,"+ <1>",1022,"127",0,"lightswitch.bmp",252,"245",0,"lightswitch.wav",1205,"253",0,"7_respond.bmp",470,
2023-03-15,16:47,C:\Users\N400 BCI\Desktop\N400_BCI_Direct_RT_2022\N400-BCI-DRTscript-v1.csv,004,1,-9,11,148.01,253,MOUSE-R,"7_respond.bmp",700,True,737397,36,507,"252",0,"+ <1>",1240,"197",0,"spoolofthread.bmp",251,"246",0,"spoolofthread_foil.wav",1204,"253",0,"7_respond.bmp",700,
2023-03-15,16:47,C:\Users\N400 BCI\Desktop\N400_BCI_Direct_RT_2022\N400-BCI-DRTscript-v1.csv,004,1,-9,12,149.01,-1,-1,-1,-1,-1,741815,31,507,"252",0,"+ <1>",1077,"205",0,"swan.bmp",271,"246",0,"swan_foil.wav",1199,
2023-03-15,16:47,C:\Users\N400 BCI\Desktop\N400_BCI_Direct_RT_2022\N400-BCI-DRTscript-v1.csv,004,1,-9,13,150.01,-1,-1,-1,-1,-1,744869,31,507,"252",0,"+ <1>",895,"53",0,"chisel.bmp",204,"245",0,"chisel.wav",1201,
2023-03-15,16:47,C:\Users\N400 BCI\Desktop\N400_BCI_Direct_RT_2022\N400-BCI-DRTscript-v1.csv,004,1,-9,14,151.01,-1,-1,-1,-1,-1,747676,30,507,"252",0,"+ <1>",1051,"105",0,"hammer.bmp",223,"245",0,"hammer.wav",1200,
2023-03-15,16:47,C:\Users\N400 BCI\Desktop\N400_BCI_Direct_RT_2022\N400-BCI-DRTscript-v1.csv,004,1,-9,15,152.01,-1,-1,-1,-1,-1,750657,32,507,"252",0,"+ <1>",1423,"190",0,"sled.bmp",313,"246",0,"sled_foil.wav",1200,
2023-03-15,16:47,C:\Users\N400 BCI\Desktop\N400_BCI_Direct_RT_2022\N400-BCI-DRTscript-v1.csv,004,1,-9,16,153.01,252,MOUSE-L,"7_respond.bmp",612,True,754100,38,507,"252",0,"+ <1>",1113,"172",0,"ring.bmp",276,"245",0,"ring.wav",1204,"253",0,"7_respond.bmp",615,
2023-03-15,16:47,C:\Users\N400 BCI\Desktop\N400_BCI_Direct_RT_2022\N400-BCI-DRTscript-v1.csv,004,1,-10,1,155.01,-1,-1,-1,-1,-1,778306,31,507,"252",0,"+ <1>",1246,"152",0,"peanut.bmp",228,"246",0,"peanut_foil.wav",1201,
2023-03-15,16:47,C:\Users\N400 BCI\Desktop\N400_BCI_Direct_RT_2022\N400-BCI-DRTscript-v1.csv,004,1,-10,2,156.01,252,MOUSE-L,"7_respond.bmp",636,True,781488,36,506,"252",0,"+ <1>",1439,"182",0,"scissors.bmp",283,"245",0,"scissors.wav",1204,"253",0,"7_respond.bmp",641,
2023-03-15,16:47,C:\Users\N400 BCI\Desktop\N400_BCI_Direct_RT_2022\N400-BCI-DRTscript-v1.csv,004,1,-10,3,157.01,-1,-1,-1,-1,-1,786076,32,507,"252",0,"+ <1>",1240,"119",0,"ladder.bmp",302,"245",0,"ladder.wav",1199,
2023-03-15,16:47,C:\Users\N400 BCI\Desktop\N400_BCI_Direct_RT_2022\N400-BCI-DRTscript-v1.csv,004,1,-10,4,158.01,253,MOUSE-R,"7_respond.bmp",602,True,789324,37,507,"252",0,"+ <1>",877,"79",0,"fence.bmp",306,"246",0,"fence_foil.wav",1204,"253",0,"7_respond.bmp",603,
2023-03-15,16:47,C:\Users\N400 BCI\Desktop\N400_BCI_Direct_RT_2022\N400-BCI-DRTscript-v1.csv,004,1,-10,5,159.01,-1,-1,-1,-1,-1,793336,32,506,"252",0,"+ <1>",1272,"134",0,"moon.bmp",337,"246",0,"moon_foil.wav",1195,
2023-03-15,16:47,C:\Users\N400 BCI\Desktop\N400_BCI_Direct_RT_2022\N400-BCI-DRTscript-v1.csv,004,1,-10,6,160.01,252,MOUSE-L,"7_respond.bmp",388,True,796646,38,506,"252",0,"+ <1>",937,"50",0,"chair.bmp",324,"245",0,"chair.wav",1203,"253",0,"7_respond.bmp",393,
2023-03-15,16:47,C:\Users\N400 BCI\Desktop\N400_BCI_Direct_RT_2022\N400-BCI-DRTscript-v1.csv,004,1,-10,7,161.01,252,MOUSE-L,"7_respond.bmp",689,True,800525,37,508,"252",0,"+ <1>",944,"149",0,"pants.bmp",294,"245",0,"pants.wav",1204,"253",0,"7_respond.bmp",692,
2023-03-15,16:47,C:\Users\N400 BCI\Desktop\N400_BCI_Direct_RT_2022\N400-BCI-DRTscript-v1.csv,004,1,-10,8,162.01,-1,-1,-1,-1,-1,804682,31,507,"252",0,"+ <1>",1478,"6",0,"ant.bmp",252,"245",0,"ant.wav",1199,
2023-03-15,16:47,C:\Users\N400 BCI\Desktop\N400_BCI_Direct_RT_2022\N400-BCI-DRTscript-v1.csv,004,1,-10,9,163.01,-1,-1,-1,-1,-1,808118,31,507,"252",0,"+ <1>",1489,"218",0,"tomato.bmp",215,"246",0,"tomato_foil.wav",1195,
2023-03-15,16:47,C:\Users\N400 BCI\Desktop\N400_BCI_Direct_RT_2022\N400-BCI-DRTscript-v1.csv,004,1,-10,10,164.01,253,MOUSE-R,"7_respond.bmp",381,True,811524,37,507,"252",0,"+ <1>",1034,"27",0,"book.bmp",313,"246",0,"book_foil.wav",1204,"253",0,"7_respond.bmp",384,
2023-03-15,16:47,C:\Users\N400 BCI\Desktop\N400_BCI_Direct_RT_2022\N400-BCI-DRTscript-v1.csv,004,1,-10,11,165.01,-1,-1,-1,-1,-1,815482,32,506,"252",0,"+ <1>",1251,"175",0,"rollingpin.bmp",342,"245",0,"rollingpin.wav",1198,
2023-03-15,16:47,C:\Users\N400 BCI\Desktop\N400_BCI_Direct_RT_2022\N400-BCI-DRTscript-v1.csv,004,1,-10,12,166.01,253,MOUSE-R,"7_respond.bmp",994,True,818779,37,508,"252",0,"+ <1>",1460,"124",0,"leopard.bmp",282,"246",0,"leopard_foil.wav",1204,"253",0,"7_respond.bmp",994,
2023-03-15,16:47,C:\Users\N400 BCI\Desktop\N400_BCI_Direct_RT_2022\N400-BCI-DRTscript-v1.csv,004,1,-10,13,167.01,-1,-1,-1,-1,-1,823743,30,507,"252",0,"+ <1>",1156,"57",0,"clock.bmp",306,"245",0,"clock.wav",1195,
2023-03-15,16:47,C:\Users\N400 BCI\Desktop\N400_BCI_Direct_RT_2022\N400-BCI-DRTscript-v1.csv,004,1,-10,14,168.01,253,MOUSE-R,"7_respond.bmp",815,True,826907,37,506,"252",0,"+ <1>",1198,"87",0,"football.bmp",245,"246",0,"football_foil.wav",1204,"253",0,"7_respond.bmp",816,
2023-03-15,16:47,C:\Users\N400 BCI\Desktop\N400_BCI_Direct_RT_2022\N400-BCI-DRTscript-v1.csv,004,1,-10,15,169.01,-1,-1,-1,-1,-1,831391,32,507,"252",0,"+ <1>",1300,"65",0,"deer.bmp",265,"246",0,"deer_foil.wav",1195,
2023-03-15,16:47,C:\Users\N400 BCI\Desktop\N400_BCI_Direct_RT_2022\N400-BCI-DRTscript-v1.csv,004,1,-10,16,170.01,252,MOUSE-L,"7_respond.bmp",692,True,834658,37,506,"252",0,"+ <1>",1046,"229",0,"vest.bmp",307,"245",0,"vest.wav",1203,"253",0,"7_respond.bmp",696,
2023-03-15,16:47,C:\Users\N400 BCI\Desktop\N400_BCI_Direct_RT_2022\N400-BCI-DRTscript-v1.csv,004,1,-11,1,172.01,253,MOUSE-R,"7_respond.bmp",972,True,855846,36,507,"252",0,"+ <1>",962,"138",0,"nail.bmp",289,"246",0,"nail_foil.wav",1204,"253",0,"7_respond.bmp",977,
2023-03-15,16:47,C:\Users\N400 BCI\Desktop\N400_BCI_Direct_RT_2022\N400-BCI-DRTscript-v1.csv,004,1,-11,2,173.01,252,MOUSE-L,"7_respond.bmp",385,True,860301,37,507,"252",0,"+ <1>",865,"107",0,"hanger.bmp",222,"245",0,"hanger.wav",1204,"253",0,"7_respond.bmp",389,
2023-03-15,16:47,C:\Users\N400 BCI\Desktop\N400_BCI_Direct_RT_2022\N400-BCI-DRTscript-v1.csv,004,1,-11,3,174.01,-1,-1,-1,-1,-1,864004,31,506,"252",0,"+ <1>",1085,"20",0,"bed.bmp",277,"245",0,"bed.wav",1199,
2023-03-15,16:47,C:\Users\N400 BCI\Desktop\N400_BCI_Direct_RT_2022\N400-BCI-DRTscript-v1.csv,004,1,-11,4,175.01,-1,-1,-1,-1,-1,867071,31,507,"252",0,"+ <1>",786,"148",0,"paintbrush.bmp",313,"246",0,"paintbrush_foil.wav",1199,
2023-03-15,16:47,C:\Users\N400 BCI\Desktop\N400_BCI_Direct_RT_2022\N400-BCI-DRTscript-v1.csv,004,1,-11,5,176.01,-1,-1,-1,-1,-1,869876,33,507,"252",0,"+ <1>",1052,"163",0,"plug.bmp",265,"245",0,"plug.wav",1195,
2023-03-15,16:47,C:\Users\N400 BCI\Desktop\N400_BCI_Direct_RT_2022\N400-BCI-DRTscript-v1.csv,004,1,-11,6,177.01,-1,-1,-1,-1,-1,872895,33,506,"252",0,"+ <1>",1082,"237",0,"windmill.bmp",259,"246",0,"windmill_foil.wav",1195,
2023-03-15,16:47,C:\Users\N400 BCI\Desktop\N400_BCI_Direct_RT_2022\N400-BCI-DRTscript-v1.csv,004,1,-11,7,178.01,-1,-1,-1,-1,-1,875937,32,507,"252",0,"+ <1>",1350,"38",0,"butterfly.bmp",306,"246",0,"butterfly_foil.wav",1195,
2023-03-15,16:47,C:\Users\N400 BCI\Desktop\N400_BCI_Direct_RT_2022\N400-BCI-DRTscript-v1.csv,004,1,-11,8,179.01,252,MOUSE-L,"7_respond.bmp",1844,True,879295,37,507,"252",0,"+ <1>",870,"48",0,"celery.bmp",331,"245",0,"celery.wav",1204,"253",0,"7_respond.bmp",1845,
2023-03-15,16:47,C:\Users\N400 BCI\Desktop\N400_BCI_Direct_RT_2022\N400-BCI-DRTscript-v1.csv,004,1,-11,9,180.01,-1,-1,-1,-1,-1,884567,33,507,"252",0,"+ <1>",1112,"96",0,"glass.bmp",239,"245",0,"glass.wav",1197,
2023-03-15,16:47,C:\Users\N400 BCI\Desktop\N400_BCI_Direct_RT_2022\N400-BCI-DRTscript-v1.csv,004,1,-11,10,181.01,252,MOUSE-L,"7_respond.bmp",738,True,887622,37,507,"252",0,"+ <1>",1077,"80",0,"finger.bmp",264,"245",0,"finger.wav",1203,"253",0,"7_respond.bmp",743,
2023-03-15,16:47,C:\Users\N400 BCI\Desktop\N400_BCI_Direct_RT_2022\N400-BCI-DRTscript-v1.csv,004,1,-11,11,182.01,252,MOUSE-L,"7_respond.bmp",1177,True,891931,36,507,"252",0,"+ <1>",835,"162",0,"pliers.bmp",222,"245",0,"pliers.wav",1203,"253",0,"7_respond.bmp",1179,
2023-03-15,16:47,C:\Users\N400 BCI\Desktop\N400_BCI_Direct_RT_2022\N400-BCI-DRTscript-v1.csv,004,1,-11,12,183.01,-1,-1,-1,-1,-1,896392,31,506,"252",0,"+ <1>",1282,"228",0,"vase.bmp",239,"245",0,"vase.wav",1197,
2023-03-15,16:47,C:\Users\N400 BCI\Desktop\N400_BCI_Direct_RT_2022\N400-BCI-DRTscript-v1.csv,004,1,-11,13,184.01,-1,-1,-1,-1,-1,899616,31,509,"252",0,"+ <1>",834,"160",0,"pineapple.bmp",228,"246",0,"pineapple_foil.wav",1198,
2023-03-15,16:47,C:\Users\N400 BCI\Desktop\N400_BCI_Direct_RT_2022\N400-BCI-DRTscript-v1.csv,004,1,-11,14,185.01,253,MOUSE-R,"7_respond.bmp",690,True,902385,38,507,"252",0,"+ <1>",1198,"217",0,"toe.bmp",211,"246",0,"toe_foil.wav",1204,"253",0,"7_respond.bmp",693,
2023-03-15,16:47,C:\Users\N400 BCI\Desktop\N400_BCI_Direct_RT_2022\N400-BCI-DRTscript-v1.csv,004,1,-11,15,186.01,253,MOUSE-R,"7_respond.bmp",1293,True,906713,37,507,"252",0,"+ <1>",1259,"200",0,"stool.bmp",236,"246",0,"stool_foil.wav",1203,"253",0,"7_respond.bmp",1298,
2023-03-15,16:47,C:\Users\N400 BCI\Desktop\N400_BCI_Direct_RT_2022\N400-BCI-DRTscript-v1.csv,004,1,-11,16,187.01,253,MOUSE-R,"7_respond.bmp",870,True,911731,38,507,"252",0,"+ <1>",1331,"198",0,"spoon.bmp",233,"246",0,"spoon_foil.wav",1204,"253",0,"7_respond.bmp",871,
2023-03-15,16:47,C:\Users\N400 BCI\Desktop\N400_BCI_Direct_RT_2022\N400-BCI-DRTscript-v1.csv,004,1,-12,1,189.01,-1,-1,-1,-1,-1,945822,31,507,"252",0,"+ <1>",1404,"64",0,"cup.bmp",325,"245",0,"cup.wav",1201,
2023-03-15,16:47,C:\Users\N400 BCI\Desktop\N400_BCI_Direct_RT_2022\N400-BCI-DRTscript-v1.csv,004,1,-12,2,190.01,252,MOUSE-L,"7_respond.bmp",926,True,949259,37,508,"252",0,"+ <1>",1003,"59",0,"cloud.bmp",239,"245",0,"cloud.wav",1204,"253",0,"7_respond.bmp",931,
2023-03-15,16:47,C:\Users\N400 BCI\Desktop\N400_BCI_Direct_RT_2022\N400-BCI-DRTscript-v1.csv,004,1,-12,3,191.01,253,MOUSE-R,"7_respond.bmp",667,True,953659,36,508,"252",0,"+ <1>",1471,"195",0,"spider.bmp",271,"246",0,"spider_foil.wav",1204,"253",0,"7_respond.bmp",668,
2023-03-15,16:47,C:\Users\N400 BCI\Desktop\N400_BCI_Direct_RT_2022\N400-BCI-DRTscript-v1.csv,004,1,-12,4,192.01,252,MOUSE-L,"7_respond.bmp",360,True,958295,37,507,"252",0,"+ <1>",987,"109",0,"helicopter.bmp",306,"245",0,"helicopter.wav",1204,"253",0,"7_respond.bmp",366,
2023-03-15,16:47,C:\Users\N400 BCI\Desktop\N400_BCI_Direct_RT_2022\N400-BCI-DRTscript-v1.csv,004,1,-12,5,193.01,-1,-1,-1,-1,-1,962180,31,507,"252",0,"+ <1>",1083,"146",0,"ostrich.bmp",289,"246",0,"ostrich_foil.wav",1200,
2023-03-15,16:47,C:\Users\N400 BCI\Desktop\N400_BCI_Direct_RT_2022\N400-BCI-DRTscript-v1.csv,004,1,-12,6,194.01,-1,-1,-1,-1,-1,965259,32,507,"252",0,"+ <1>",1239,"43",0,"cap.bmp",259,"245",0,"cap.wav",1195,
2023-03-15,16:47,C:\Users\N400 BCI\Desktop\N400_BCI_Direct_RT_2022\N400-BCI-DRTscript-v1.csv,004,1,-12,7,195.01,-1,-1,-1,-1,-1,968459,33,508,"252",0,"+ <1>",780,"154",0,"pen.bmp",331,"245",0,"pen.wav",1200,
2023-03-15,16:47,C:\Users\N400 BCI\Desktop\N400_BCI_Direct_RT_2022\N400-BCI-DRTscript-v1.csv,004,1,-12,8,196.01,253,MOUSE-R,"7_respond.bmp",674,True,971278,36,507,"252",0,"+ <1>",1209,"235",0,"wheel.bmp",331,"246",0,"wheel_foil.wav",1204,"253",0,"7_respond.bmp",675,
2023-03-15,16:47,C:\Users\N400 BCI\Desktop\N400_BCI_Direct_RT_2022\N400-BCI-DRTscript-v1.csv,004,1,-12,9,197.01,253,MOUSE-R,"7_respond.bmp",666,True,975719,37,508,"252",0,"+ <1>",1082,"132",0,"mitten.bmp",224,"246",0,"mitten_foil.wav",1204,"253",0,"7_respond.bmp",667,
2023-03-15,16:47,C:\Users\N400 BCI\Desktop\N400_BCI_Direct_RT_2022\N400-BCI-DRTscript-v1.csv,004,1,-12,10,198.01,-1,-1,-1,-1,-1,979920,32,506,"252",0,"+ <1>",1375,"176",0,"rooster.bmp",324,"246",0,"rooster_foil.wav",1195,
2023-03-15,16:47,C:\Users\N400 BCI\Desktop\N400_BCI_Direct_RT_2022\N400-BCI-DRTscript-v1.csv,004,1,-12,11,199.01,-1,-1,-1,-1,-1,983320,31,507,"252",0,"+ <1>",901,"120",0,"lamp.bmp",240,"246",0,"lamp_foil.wav",1200,
2023-03-15,16:47,C:\Users\N400 BCI\Desktop\N400_BCI_Direct_RT_2022\N400-BCI-DRTscript-v1.csv,004,1,-12,12,200.01,252,MOUSE-L,"7_respond.bmp",518,True,986168,38,507,"252",0,"+ <1>",1349,"82",0,"flag.bmp",283,"245",0,"flag.wav",1203,"253",0,"7_respond.bmp",518,
2023-03-15,16:47,C:\Users\N400 BCI\Desktop\N400_BCI_Direct_RT_2022\N400-BCI-DRTscript-v1.csv,004,1,-12,13,201.01,-1,-1,-1,-1,-1,990544,31,506,"252",0,"+ <1>",1410,"199",0,"squirrel.bmp",276,"245",0,"squirrel.wav",1196,
2023-03-15,16:47,C:\Users\N400 BCI\Desktop\N400_BCI_Direct_RT_2022\N400-BCI-DRTscript-v1.csv,004,1,-12,14,202.01,253,MOUSE-R,"7_respond.bmp",645,True,993932,36,507,"252",0,"+ <1>",1325,"73",0,"duck.bmp",215,"246",0,"duck_foil.wav",1204,"253",0,"7_respond.bmp",646,
2023-03-15,16:47,C:\Users\N400 BCI\Desktop\N400_BCI_Direct_RT_2022\N400-BCI-DRTscript-v1.csv,004,1,-12,15,203.01,-1,-1,-1,-1,-1,998344,33,507,"252",0,"+ <1>",1398,"10",0,"axe.bmp",222,"246",0,"axe_foil.wav",1200,
2023-03-15,16:47,C:\Users\N400 BCI\Desktop\N400_BCI_Direct_RT_2022\N400-BCI-DRTscript-v1.csv,004,1,-12,16,204.01,252,MOUSE-L,"7_respond.bmp",537,True,1001671,38,507,"252",0,"+ <1>",1046,"60",0,"clown.bmp",216,"245",0,"clown.wav",1203,"253",0,"7_respond.bmp",538,
2023-03-15,16:47,C:\Users\N400 BCI\Desktop\N400_BCI_Direct_RT_2022\N400-BCI-DRTscript-v1.csv,004,1,-13,1,206.01,253,MOUSE-R,"7_respond.bmp",726,True,1022472,36,506,"252",0,"+ <1>",1416,"121",0,"leaf.bmp",216,"246",0,"leaf_foil.wav",1204,"253",0,"7_respond.bmp",730,
2023-03-15,16:47,C:\Users\N400 BCI\Desktop\N400_BCI_Direct_RT_2022\N400-BCI-DRTscript-v1.csv,004,1,-13,2,207.01,252,MOUSE-L,"7_respond.bmp",574,True,1027060,35,507,"252",0,"+ <1>",774,"28",0,"boot.bmp",283,"245",0,"boot.wav",1205,"253",0,"7_respond.bmp",575,
2023-03-15,16:47,C:\Users\N400 BCI\Desktop\N400_BCI_Direct_RT_2022\N400-BCI-DRTscript-v1.csv,004,1,-13,3,208.01,252,MOUSE-L,"7_respond.bmp",365,True,1030920,36,507,"252",0,"+ <1>",1058,"168",0,"rabbit.bmp",319,"245",0,"rabbit.wav",1203,"253",0,"7_respond.bmp",368,
2023-03-15,16:47,C:\Users\N400 BCI\Desktop\N400_BCI_Direct_RT_2022\N400-BCI-DRTscript-v1.csv,004,1,-13,4,209.01,-1,-1,-1,-1,-1,1034890,32,507,"252",0,"+ <1>",845,"66",0,"desk.bmp",245,"246",0,"desk_foil.wav",1196,
2023-03-15,16:47,C:\Users\N400 BCI\Desktop\N400_BCI_Direct_RT_2022\N400-BCI-DRTscript-v1.csv,004,1,-13,5,210.01,253,MOUSE-R,"7_respond.bmp",579,True,1037683,39,507,"252",0,"+ <1>",1307,"164",0,"pot.bmp",251,"246",0,"pot_foil.wav",1204,"253",0,"7_respond.bmp",580,
2023-03-15,16:47,C:\Users\N400 BCI\Desktop\N400_BCI_Direct_RT_2022\N400-BCI-DRTscript-v1.csv,004,1,-13,6,211.01,253,MOUSE-R,"7_respond.bmp",422,True,1042048,36,506,"252",0,"+ <1>",1192,"68",0,"doll.bmp",312,"246",0,"doll_foil.wav",1203,"253",0,"7_respond.bmp",422,
2023-03-15,16:47,C:\Users\N400 BCI\Desktop\N400_BCI_Direct_RT_2022\N400-BCI-DRTscript-v1.csv,004,1,-13,7,212.01,-1,-1,-1,-1,-1,1046198,32,507,"252",0,"+ <1>",1240,"52",0,"chicken.bmp",350,"246",0,"chicken_foil.wav",1195,
2023-03-15,16:47,C:\Users\N400 BCI\Desktop\N400_BCI_Direct_RT_2022\N400-BCI-DRTscript-v1.csv,004,1,-13,8,213.01,-1,-1,-1,-1,-1,1049490,32,507,"252",0,"+ <1>",1452,"184",0,"screwdriver.bmp",240,"245",0,"screwdriver.wav",1195,
2023-03-15,16:47,C:\Users\N400 BCI\Desktop\N400_BCI_Direct_RT_2022\N400-BCI-DRTscript-v1.csv,004,1,-13,9,214.01,252,MOUSE-L,"7_respond.bmp",690,True,1052884,36,507,"252",0,"+ <1>",828,"135",0,"motorcycle.bmp",234,"245",0,"motorcycle.wav",1204,"253",0,"7_respond.bmp",694,
2023-03-15,16:47,C:\Users\N400 BCI\Desktop\N400_BCI_Direct_RT_2022\N400-BCI-DRTscript-v1.csv,004,1,-13,10,215.01,-1,-1,-1,-1,-1,1056866,31,507,"252",0,"+ <1>",998,"102",0,"guitar.bmp",289,"245",0,"guitar.wav",1200,
2023-03-15,16:47,C:\Users\N400 BCI\Desktop\N400_BCI_Direct_RT_2022\N400-BCI-DRTscript-v1.csv,004,1,-13,11,216.01,-1,-1,-1,-1,-1,1059860,32,507,"252",0,"+ <1>",1046,"227",0,"umbrella.bmp",216,"245",0,"umbrella.wav",1195,
2023-03-15,16:47,C:\Users\N400 BCI\Desktop\N400_BCI_Direct_RT_2022\N400-BCI-DRTscript-v1.csv,004,1,-13,12,217.01,252,MOUSE-L,"7_respond.bmp",465,True,1062824,36,507,"252",0,"+ <1>",827,"118",0,"knife.bmp",337,"245",0,"knife.wav",1203,"253",0,"7_respond.bmp",470,
2023-03-15,16:47,C:\Users\N400 BCI\Desktop\N400_BCI_Direct_RT_2022\N400-BCI-DRTscript-v1.csv,004,1,-13,13,218.01,-1,-1,-1,-1,-1,1066684,31,506,"252",0,"+ <1>",1252,"193",0,"snowman.bmp",210,"246",0,"snowman_foil.wav",1196,
2023-03-15,16:47,C:\Users\N400 BCI\Desktop\N400_BCI_Direct_RT_2022\N400-BCI-DRTscript-v1.csv,004,1,-13,14,219.01,253,MOUSE-R,"7_respond.bmp",949,True,1069848,38,506,"252",0,"+ <1>",1252,"31",0,"bowl.bmp",204,"246",0,"bowl_foil.wav",1204,"253",0,"7_respond.bmp",954,
2023-03-15,16:47,C:\Users\N400 BCI\Desktop\N400_BCI_Direct_RT_2022\N400-BCI-DRTscript-v1.csv,004,1,-13,15,220.01,-1,-1,-1,-1,-1,1074484,31,506,"252",0,"+ <1>",895,"49",0,"chain.bmp",349,"246",0,"chain_foil.wav",1196,
2023-03-15,16:47,C:\Users\N400 BCI\Desktop\N400_BCI_Direct_RT_2022\N400-BCI-DRTscript-v1.csv,004,1,-13,16,221.01,-1,-1,-1,-1,-1,1077430,30,507,"252",0,"+ <1>",1228,"238",0,"window.bmp",306,"245",0,"window.wav",1201,
2023-03-15,16:47,C:\Users\N400 BCI\Desktop\N400_BCI_Direct_RT_2022\N400-BCI-DRTscript-v1.csv,004,1,-14,1,223.01,253,MOUSE-R,"7_respond.bmp",555,True,1097951,36,508,"252",0,"+ <1>",1415,"89",0,"fork.bmp",235,"246",0,"fork_foil.wav",1204,"253",0,"7_respond.bmp",559,
2023-03-15,16:47,C:\Users\N400 BCI\Desktop\N400_BCI_Direct_RT_2022\N400-BCI-DRTscript-v1.csv,004,1,-14,2,224.01,-1,-1,-1,-1,-1,1102387,31,506,"252",0,"+ <1>",1440,"145",0,"orange.bmp",210,"246",0,"orange_foil.wav",1195,
2023-03-15,16:47,C:\Users\N400 BCI\Desktop\N400_BCI_Direct_RT_2022\N400-BCI-DRTscript-v1.csv,004,1,-14,3,225.01,-1,-1,-1,-1,-1,1105738,35,507,"252",0,"+ <1>",1368,"233",0,"watermelon.bmp",349,"246",0,"watermelon_foil.wav",1195,
2023-03-15,16:47,C:\Users\N400 BCI\Desktop\N400_BCI_Direct_RT_2022\N400-BCI-DRTscript-v1.csv,004,1,-14,4,226.01,-1,-1,-1,-1,-1,1109157,33,507,"252",0,"+ <1>",1363,"222",0,"train.bmp",264,"245",0,"train.wav",1199,
2023-03-15,16:47,C:\Users\N400 BCI\Desktop\N400_BCI_Direct_RT_2022\N400-BCI-DRTscript-v1.csv,004,1,-14,5,227.01,-1,-1,-1,-1,-1,1112490,33,507,"252",0,"+ <1>",1227,"36",0,"bug.bmp",235,"245",0,"bug.wav",1195,
2023-03-15,16:47,C:\Users\N400 BCI\Desktop\N400_BCI_Direct_RT_2022\N400-BCI-DRTscript-v1.csv,004,1,-14,6,228.01,-1,-1,-1,-1,-1,1115654,31,506,"252",0,"+ <1>",1215,"63",0,"cow.bmp",330,"245",0,"cow.wav",1197,
2023-03-15,16:47,C:\Users\N400 BCI\Desktop\N400_BCI_Direct_RT_2022\N400-BCI-DRTscript-v1.csv,004,1,-14,7,229.01,252,MOUSE-L,"7_respond.bmp",760,True,1118902,38,506,"252",0,"+ <1>",1277,"91",0,"frenchhorn.bmp",300,"245",0,"frenchhorn.wav",1203,"253",0,"7_respond.bmp",763,
2023-03-15,16:47,C:\Users\N400 BCI\Desktop\N400_BCI_Direct_RT_2022\N400-BCI-DRTscript-v1.csv,004,1,-14,8,230.01,252,MOUSE-L,"7_respond.bmp",635,True,1123466,37,508,"252",0,"+ <1>",846,"4",0,"alligator.bmp",216,"245",0,"alligator.wav",1204,"253",0,"7_respond.bmp",638,
2023-03-15,16:47,C:\Users\N400 BCI\Desktop\N400_BCI_Direct_RT_2022\N400-BCI-DRTscript-v1.csv,004,1,-14,9,231.01,253,MOUSE-R,"7_respond.bmp",618,True,1127393,38,507,"252",0,"+ <1>",1131,"221",0,"trafficlight.bmp",319,"246",0,"trafficlight_foil.wav",1203,"253",0,"7_respond.bmp",622,
2023-03-15,16:47,C:\Users\N400 BCI\Desktop\N400_BCI_Direct_RT_2022\N400-BCI-DRTscript-v1.csv,004,1,-14,10,232.01,253,MOUSE-R,"7_respond.bmp",640,True,1131691,36,506,"252",0,"+ <1>",1325,"84",0,"flute.bmp",277,"246",0,"flute_foil.wav",1204,"253",0,"7_respond.bmp",645,
2023-03-15,16:47,C:\Users\N400 BCI\Desktop\N400_BCI_Direct_RT_2022\N400-BCI-DRTscript-v1.csv,004,1,-14,11,233.01,252,MOUSE-L,"7_respond.bmp",774,True,1136163,37,507,"252",0,"+ <1>",894,"74",0,"eagle.bmp",300,"245",0,"eagle.wav",1205,"253",0,"7_respond.bmp",779,
2023-03-15,16:47,C:\Users\N400 BCI\Desktop\N400_BCI_Direct_RT_2022\N400-BCI-DRTscript-v1.csv,004,1,-14,12,234.01,-1,-1,-1,-1,-1,1140363,32,507,"252",0,"+ <1>",1409,"225",0,"trumpet.bmp",289,"246",0,"trumpet_foil.wav",1195,
2023-03-15,16:47,C:\Users\N400 BCI\Desktop\N400_BCI_Direct_RT_2022\N400-BCI-DRTscript-v1.csv,004,1,-14,13,235.01,-1,-1,-1,-1,-1,1143763,32,507,"252",0,"+ <1>",1021,"26",0,"blouse.bmp",319,"246",0,"blouse_foil.wav",1196,
2023-03-15,16:47,C:\Users\N400 BCI\Desktop\N400_BCI_Direct_RT_2022\N400-BCI-DRTscript-v1.csv,004,1,-14,14,236.01,-1,-1,-1,-1,-1,1146806,31,506,"252",0,"+ <1>",1488,"47",0,"caterpillar.bmp",228,"245",0,"caterpillar.wav",1196,
2023-03-15,16:47,C:\Users\N400 BCI\Desktop\N400_BCI_Direct_RT_2022\N400-BCI-DRTscript-v1.csv,004,1,-14,15,237.01,252,MOUSE-L,"7_respond.bmp",897,True,1150224,37,507,"252",0,"+ <1>",846,"29",0,"bottle.bmp",295,"245",0,"bottle.wav",1203,"253",0,"7_respond.bmp",900,
2023-03-15,16:47,C:\Users\N400 BCI\Desktop\N400_BCI_Direct_RT_2022\N400-BCI-DRTscript-v1.csv,004,1,-14,16,238.01,253,MOUSE-R,"7_respond.bmp",783,True,1154491,36,508,"252",0,"+ <1>",1071,"201",0,"stove.bmp",252,"246",0,"stove_foil.wav",1203,"253",0,"7_respond.bmp",784,
2023-03-15,16:47,C:\Users\N400 BCI\Desktop\N400_BCI_Direct_RT_2022\N400-BCI-DRTscript-v1.csv,004,1,-15,1,240.01,252,MOUSE-L,"7_respond.bmp",730,True,1175606,38,506,"252",0,"+ <1>",1234,"232",0,"wateringcan.bmp",283,"245",0,"wateringcan.wav",1204,"253",0,"7_respond.bmp",730,
2023-03-15,16:47,C:\Users\N400 BCI\Desktop\N400_BCI_Direct_RT_2022\N400-BCI-DRTscript-v1.csv,004,1,-15,2,241.01,-1,-1,-1,-1,-1,1180079,32,507,"252",0,"+ <1>",1458,"33",0,"bread.bmp",324,"245",0,"bread.wav",1196,
2023-03-15,16:47,C:\Users\N400 BCI\Desktop\N400_BCI_Direct_RT_2022\N400-BCI-DRTscript-v1.csv,004,1,-15,3,242.01,252,MOUSE-L,"7_respond.bmp",675,True,1183564,36,508,"252",0,"+ <1>",1052,"85",0,"fly.bmp",210,"245",0,"fly.wav",1203,"253",0,"7_respond.bmp",675,
2023-03-15,16:47,C:\Users\N400 BCI\Desktop\N400_BCI_Direct_RT_2022\N400-BCI-DRTscript-v1.csv,004,1,-15,4,243.01,-1,-1,-1,-1,-1,1187727,32,506,"252",0,"+ <1>",1313,"131",0,"lock.bmp",259,"246",0,"lock_foil.wav",1195,
2023-03-15,16:47,C:\Users\N400 BCI\Desktop\N400_BCI_Direct_RT_2022\N400-BCI-DRTscript-v1.csv,004,1,-15,5,244.01,253,MOUSE-R,"7_respond.bmp",703,True,1191000,37,506,"252",0,"+ <1>",1260,"95",0,"giraffe.bmp",331,"246",0,"giraffe_foil.wav",1204,"253",0,"7_respond.bmp",706,
2023-03-15,16:47,C:\Users\N400 BCI\Desktop\N400_BCI_Direct_RT_2022\N400-BCI-DRTscript-v1.csv,004,1,-15,6,245.01,253,MOUSE-R,"7_respond.bmp",834,True,1195521,38,507,"252",0,"+ <1>",1434,"115",0,"kettle.bmp",337,"246",0,"kettle_foil.wav",1203,"253",0,"7_respond.bmp",835,
2023-03-15,16:47,C:\Users\N400 BCI\Desktop\N400_BCI_Direct_RT_2022\N400-BCI-DRTscript-v1.csv,004,1,-15,7,246.01,253,MOUSE-R,"7_respond.bmp",600,True,1200352,37,507,"252",0,"+ <1>",1192,"54",0,"church.bmp",222,"246",0,"church_foil.wav",1203,"253",0,"7_respond.bmp",603,
2023-03-15,16:47,C:\Users\N400 BCI\Desktop\N400_BCI_Direct_RT_2022\N400-BCI-DRTscript-v1.csv,004,1,-15,8,247.01,-1,-1,-1,-1,-1,1204594,30,507,"252",0,"+ <1>",907,"58",0,"clothespin.bmp",221,"246",0,"clothespin_foil.wav",1196,
2023-03-15,16:47,C:\Users\N400 BCI\Desktop\N400_BCI_Direct_RT_2022\N400-BCI-DRTscript-v1.csv,004,1,-15,9,248.01,-1,-1,-1,-1,-1,1207425,31,507,"252",0,"+ <1>",1064,"51",0,"cherry.bmp",337,"245",0,"cherry.wav",1201,
2023-03-15,16:47,C:\Users\N400 BCI\Desktop\N400_BCI_Direct_RT_2022\N400-BCI-DRTscript-v1.csv,004,1,-15,10,249.01,-1,-1,-1,-1,-1,1210534,32,507,"252",0,"+ <1>",810,"24",0,"bicycle.bmp",221,"246",0,"bicycle_foil.wav",1195,
2023-03-15,16:47,C:\Users\N400 BCI\Desktop\N400_BCI_Direct_RT_2022\N400-BCI-DRTscript-v1.csv,004,1,-15,11,250.01,252,MOUSE-L,"7_respond.bmp",358,True,1213267,37,506,"252",0,"+ <1>",756,"181",0,"saw.bmp",240,"245",0,"saw.wav",1204,"253",0,"7_respond.bmp",360,
2023-03-15,16:47,C:\Users\N400 BCI\Desktop\N400_BCI_Direct_RT_2022\N400-BCI-DRTscript-v1.csv,004,1,-15,12,251.01,253,MOUSE-R,"7_respond.bmp",822,True,1216849,37,507,"252",0,"+ <1>",1181,"21",0,"bee.bmp",289,"246",0,"bee_foil.wav",1203,"253",0,"7_respond.bmp",826,
2023-03-15,16:47,C:\Users\N400 BCI\Desktop\N400_BCI_Direct_RT_2022\N400-BCI-DRTscript-v1.csv,004,1,-15,13,252.01,-1,-1,-1,-1,-1,1221370,31,506,"252",0,"+ <1>",883,"204",0,"sun.bmp",247,"245",0,"sun.wav",1195,
2023-03-15,16:47,C:\Users\N400 BCI\Desktop\N400_BCI_Direct_RT_2022\N400-BCI-DRTscript-v1.csv,004,1,-15,14,253.01,-1,-1,-1,-1,-1,1224201,29,507,"252",0,"+ <1>",906,"72",0,"drum.bmp",312,"246",0,"drum_foil.wav",1196,
2023-03-15,16:47,C:\Users\N400 BCI\Desktop\N400_BCI_Direct_RT_2022\N400-BCI-DRTscript-v1.csv,004,1,-15,15,254.01,-1,-1,-1,-1,-1,1227122,32,507,"252",0,"+ <1>",919,"2",0,"accordion.bmp",264,"245",0,"accordion.wav",1201,
2023-03-15,16:47,C:\Users\N400 BCI\Desktop\N400_BCI_Direct_RT_2022\N400-BCI-DRTscript-v1.csv,004,1,-15,16,255.01,252,MOUSE-L,"7_respond.bmp",1074,True,1230013,36,506,"252",0,"+ <1>",1324,"123",0,"lemon.bmp",282,"245",0,"lemon.wav",1204,"253",0,"7_respond.bmp",1077,
